body_acc_x_mean,body_acc_y_mean,body_acc_z_mean,body_acc_x_std,body_acc_y_std,body_acc_z_std,body_acc_x_max,body_acc_y_max,body_acc_z_max,body_acc_x_min,body_acc_y_min,body_acc_z_min,body_acc_x_energy,body_acc_y_energy,body_acc_z_energy,body_acc_x_iqr,body_acc_y_iqr,body_acc_z_iqr,body_acc_x_sma,body_acc_y_sma,body_acc_z_sma,body_acc_x_mad,body_acc_y_mad,body_acc_z_mad,body_acc_x_amplitude,body_acc_y_amplitude,body_acc_z_amplitude,body_gyro_x_mean,body_gyro_y_mean,body_gyro_z_mean,body_gyro_x_std,body_gyro_y_std,body_gyro_z_std,body_gyro_x_max,body_gyro_y_max,body_gyro_z_max,body_gyro_x_min,body_gyro_y_min,body_gyro_z_min,body_gyro_x_energy,body_gyro_y_energy,body_gyro_z_energy,body_gyro_x_iqr,body_gyro_y_iqr,body_gyro_z_iqr,body_gyro_x_sma,body_gyro_y_sma,body_gyro_z_sma,body_gyro_x_mad,body_gyro_y_mad,body_gyro_z_mad,body_gyro_x_amplitude,body_gyro_y_amplitude,body_gyro_z_amplitude,total_acc_x_mean,total_acc_y_mean,total_acc_z_mean,total_acc_x_std,total_acc_y_std,total_acc_z_std,total_acc_x_max,total_acc_y_max,total_acc_z_max,total_acc_x_min,total_acc_y_min,total_acc_z_min,total_acc_x_energy,total_acc_y_energy,total_acc_z_energy,total_acc_x_iqr,total_acc_y_iqr,total_acc_z_iqr,total_acc_x_sma,total_acc_y_sma,total_acc_z_sma,total_acc_x_mad,total_acc_y_mad,total_acc_z_mad,total_acc_x_amplitude,total_acc_y_amplitude,total_acc_z_amplitude,Activity,ActivityName
0.00226869044134375,-0.0016553713205468747,-0.00812555056015625,0.002941028955878465,0.004600700582145665,0.018504363462076543,0.01081025,0.01076681,0.05556068,-0.004294253,-0.01261049,-0.03300622,0.0017659657776588902,0.003060057607096905,0.05227981299741299,0.0048394206,0.0054752199,0.017909195,0.35760230577200003,0.51045609803,2.1258460927000016,0.00238564235,0.0029335725,0.009340281499999999,0.0003769864631867262,0.0005263596443112374,0.0017217909345456817,0.0222503515984375,0.019402769061484373,0.00946815436515625,0.014434088948273863,0.019828366001697104,0.005943238143615174,0.05054452,0.07485018,0.02285864,-0.003862224,-0.009021585,-0.006890512,0.09003789696265886,0.09851283783047073,0.015995907419411155,0.02451086,0.027022697,0.008283259,2.8633383786000004,2.6241895295299993,1.2669259452600004,0.008677869000000001,0.011957479,0.004028347999999999,0.0014630965130154347,0.0020765958608485353,0.0008866468460612429,1.0193045703124999,-0.12426187265625,0.09973179460937501,0.001790556184033647,0.0032699981286241505,0.00396959917623656,1.024606,-0.1172102,0.109485,1.012817,-0.132631,0.08874205,132.99008168337897,1.9778183531263103,1.2751601374241963,0.0021279999999999077,0.005060700000000015,0.004131990000000002,130.47098499999998,15.905519700000003,12.765669709999997,0.0010980000000000434,0.0025026999999999966,0.0022556550000000022,0.016199974827718188,0.002349968828253225,0.002068067387268903,5,STANDING
0.00017373955275000003,0.000381628339609375,-0.0050253200125,0.0019809172471986166,0.005929725093276461,0.01012173212357535,0.005250842,0.01663353,0.01266003,-0.006706148,-0.01261049,-0.02685954,0.0005061399772721554,0.004519331823542469,0.016346022708409628,0.0020491739,0.008184128,0.016507608,0.187247454512,0.6056944711300001,1.1421983411999996,0.00103074402,0.0039772141,0.0077760495,0.0002632959260094042,0.0006184350013373526,0.00098527803287428,0.01192575516875,-0.004313741815078125,0.0063075711740625,0.016333965468020836,0.010356062224478161,0.007430688189073518,0.05524938,0.01685763,0.02513287,-0.03864973,-0.03016049,-0.009759107,0.05235482422469945,0.016109618335285382,0.012160074378124906,0.010959292,0.014708902999999999,0.0105065268,2.1336779715999996,1.1589538477299997,1.022779645,0.0058403635,0.0072568675,0.005331918,0.0019125687040200366,0.000947694920436101,0.0008336472176342486,1.01944796875,-0.12293556953125001,0.09693947789062499,0.0019319124427684116,0.004930122077050277,0.0049184870693497204,1.024606,-0.1085598,0.1057878,1.012893,-0.132631,0.08109954,133.02757033909597,1.9375949260374299,1.2059460977610663,0.002242999999999995,0.006320099999999995,0.0056934899999999955,130.48934,15.735752899999996,12.408253169999995,0.0011404999999999887,0.003207950000000001,0.0028105000000000005,0.016185425931231276,0.002497135489127972,0.0021203915521659745,5,STANDING
0.000428091215703125,-0.00122159141171875,-0.0017025929382812502,0.002908354835315758,0.007310279372108388,0.006785920810350644,0.008166536,0.01663353,0.01266003,-0.01048281,-0.01533268,-0.01459605,0.0011061491119445412,0.007031356169658677,0.006265285626602898,0.0032106247,0.012136575,0.009824188,0.2794825871899999,0.8214994351000006,0.7342874589,0.0015635164000000002,0.005910767,0.0050685305,0.0003844102394951793,0.0007106076697219846,0.0007375879199538315,-0.004149542187499999,-0.012640026993750001,0.004334764210234375,0.02225643143116854,0.006920124535633173,0.008753414795710247,0.05524938,0.000761135,0.02860941,-0.03864973,-0.03750257,-0.009759107,0.06560863237326703,0.026580275966899318,0.01221279377204326,0.036702860000000004,0.007631709000000002,0.013408069,2.5333387979999986,1.6194457251999996,0.9495844411700001,0.018609985000000002,0.003499104,0.006722818,0.0019221472686160772,0.0009790002090167835,0.0009279845833935173,1.0199265078125,-0.12499678124999998,0.09289679640625,0.0029039851228422242,0.006459556158801544,0.006144959011692115,1.027664,-0.1085598,0.1057878,1.009013,-0.1371418,0.08109954,133.153089851929,2.0052379121445205,1.1094496388863537,0.003094999999999848,0.010437100000000005,0.008948270000000008,130.55059299999996,15.999588000000005,11.89078994,0.0016320000000001889,0.004815249999999993,0.004379234999999995,0.016313876438600192,0.0026201697100679657,0.0021493843503733044,5,STANDING
0.00032935231273437495,-0.004753393611875,-0.00494682587421875,0.0026779500705856186,0.0045509978745694795,0.004684485336784584,0.008166536,0.005359476,0.006107054,-0.01048281,-0.01533268,-0.01567863,0.0009318258593859846,0.005543210557919992,0.005941182604849902,0.003138687,0.006509905000000001,0.0071164390000000004,0.25124621512999995,0.7149853197000001,0.7002594965,0.0015819915,0.003106933,0.0034412215,0.0003251941389644012,0.0005641755812354958,0.0006319626608378044,-0.016228377761718753,-0.007696515702343749,-0.00035190115179687504,0.009165049486718514,0.007792828643806709,0.008186481257612248,0.01036105,0.007778423,0.02860941,-0.03751574,-0.03750257,-0.01322325,0.044461872239494014,0.015355460125204248,0.008594215654639695,0.013237178,0.009074807,0.006824442,2.1276507754999994,1.1112883166999994,0.77087015123,0.0065553700000000005,0.0045750695,0.003583296,0.0013317448574246657,0.000911020879692686,0.0008461494937146621,1.0203490546874998,-0.13049271093749998,0.08765391765625001,0.0025741396600023106,0.004028792529953811,0.004945062505138251,1.027664,-0.1167494,0.09873661,1.009013,-0.1435455,0.07688773,133.26320890837297,2.1817060834646207,0.9865808542295526,0.002777999999999947,0.004354999999999998,0.008113060000000005,130.60467899999998,16.703066999999997,11.219701459999996,0.0013719999999998178,0.002273750000000005,0.0040261700000000095,0.016259908392236507,0.002471275118500453,0.0019585805052160015,5,STANDING
-0.00019515715203125,0.00029818547171875,-0.00233029287640625,0.0020154352801774497,0.004990937811439517,0.004719141445319133,0.005649551,0.009660944,0.009009467,-0.006847138,-0.01466167,-0.01567863,0.0005248084073693316,0.003199791976089703,0.0035456717914570824,0.002679795,0.007226486,0.0058025328,0.20544375262000003,0.5263620088,0.5113792668199999,0.0013236105,0.003613243,0.0029237625,0.0002683878440864929,0.0005177865153171265,0.0006447658033781089,-0.00648257872109375,-0.00016643552968750007,-0.003957091590625,0.014543989192367102,0.007815092695810325,0.008259952032748819,0.04370605,0.01744664,0.01989048,-0.02490169,-0.02058165,-0.02114078,0.03245458540836716,0.007821231952595235,0.010737328824308017,0.015095971,0.009968582,0.0097661327,1.7233247637,0.8055528869999999,0.9421633554000002,0.006886248500000001,0.0048833950000000004,0.005181331,0.0014910202011289917,0.0008445668094959906,0.0008381008093094257,1.0202553437500002,-0.13020888671875,0.08499887359375,0.0019486496223246328,0.0038759088499177173,0.003636709271449889,1.026194,-0.1214556,0.09338777,1.013645,-0.1435455,0.07459499,133.23836975178,2.172080236793491,0.9264683733160118,0.0025290000000000035,0.004940699999999992,0.0049050699999999975,130.59268400000002,16.6667375,10.87985582,0.0012220000000001674,0.002444700000000008,0.002479519999999999,0.01619873192349027,0.002469478545275661,0.001806436305907334,5,STANDING
-7.7691765703125e-05,0.0036927301098437504,0.001047306393125,0.0022755251968116634,0.0033455583710165515,0.0038345109083728185,0.005649551,0.0118101,0.01013372,-0.006847138,-0.004910137,-0.009768125,0.0006635585192682019,0.003178114109187271,0.002022441547201361,0.00294437,0.004131894,0.004761543,0.23007033258999998,0.5299291676599998,0.40093650931999986,0.00140090035,0.0020659470000000003,0.0023472885,0.00028585153336417243,0.00048627199173805803,0.0005373814481731211,-0.00113513005390625,0.00178172668203125,-0.00324004854921875,0.014546393759712594,0.00801384050209767,0.010345963162735162,0.04370605,0.01744664,0.02442312,-0.02306482,-0.02058165,-0.02497604,0.027249419731441488,0.008626712264002957,0.015044719150843839,0.020251233,0.010557098,0.015899654,1.4890752700999994,0.8438451477000001,1.1467923596999996,0.0102363205,0.0052785490000000004,0.0080330145,0.0012455012579550197,0.0008866952308695789,0.0011711426482082683,1.020177453125,-0.12627476875,0.085844796640625,0.0022676281036697167,0.004217399576785846,0.0038772622820662057,1.026194,-0.1181566,0.09525821,1.013645,-0.1368123,0.07459499,133.21819878423403,2.0432772713031992,0.9451983709534968,0.0029369999999999674,0.006222199999999983,0.0048742199999999986,130.58271399999998,16.1631704,10.98813397,0.0014079999999999648,0.0031589500000000006,0.002241304999999999,0.016220551906173566,0.0024840430503831738,0.0018649023445206274,5,STANDING
0.00038704339601562497,-0.0013126573885937501,-0.00056637150859375,0.0024094828200060397,0.007310461940098447,0.006038242351502882,0.006637327,0.0118101,0.01336716,-0.005558123,-0.02169917,-0.01881881,0.0007622924864388563,0.007061238169274586,0.004707986864797416,0.00332442,0.00999721,0.007906125,0.25620181569,0.7513243046600002,0.6109909391000001,0.001638157,0.0044397855,0.0036877430000000003,0.000314567401235469,0.0008003201433276623,0.0007025784687078682,-0.0009543785406250003,-0.0039313067640625,0.0040416269709375,0.011947292373131255,0.010234126719707737,0.012238016855504451,0.02019744,0.01464141,0.02952505,-0.02453928,-0.03342406,-0.02497604,0.018387025081329382,0.01538464289128953,0.02126128705636103,0.018110095,0.011688165,0.017036549,1.2843410581999999,1.0045919372,1.3234949659200004,0.009398367,0.005610581,0.007781751000000001,0.0011676323639448287,0.0011112654112843921,0.0012862765515985622,1.020628984375,-0.12735727265625002,0.08544469765624998,0.002430580553670425,0.006275145292101746,0.00546447720774645,1.027167,-0.1174678,0.09984689,1.014804,-0.1475441,0.06887585,133.336247227926,2.0811843004000496,0.9383240791964103,0.003290999999999933,0.007443199999999983,0.006581630000000005,130.64050999999995,16.301730899999995,10.936921300000002,0.0016249999999998765,0.0036733500000000127,0.0035076750000000087,0.01625981998795717,0.002676645244102469,0.001987307790945114,5,STANDING
-2.9529718359375004e-05,-0.007002324574609375,-0.0056332259484375,0.0025265660600622287,0.00738831160175906,0.006312764047988354,0.006637327,0.007527532,0.01336716,-0.006030253,-0.02481139,-0.01970548,0.0008172042316959688,0.013263321314926834,0.009162780737500664,0.003978717,0.008879926,0.00689198,0.27168181685,1.0917422755500004,0.899444193,0.00186861,0.004481141,0.003571011,0.0003294860029341421,0.0007689792185964716,0.0006914926649278086,0.00358354369921875,-0.0016042518234374997,0.0034357441303125,0.01114060846988615,0.011608545396897867,0.012543910647677634,0.0244408,0.01756218,0.02952505,-0.02453928,-0.03342406,-0.01486549,0.017530232643009208,0.017578489618539663,0.021651716104434837,0.016363727,0.014546069,0.023035037,1.2523002001000005,1.1731581006,1.4261501633199998,0.0075600605,0.0073972595,0.010802260000000001,0.0011206140142876635,0.001114507464473053,0.0011930124172274176,1.0206098906249998,-0.13546710625000002,0.07896619046875,0.002416823839755827,0.007483393180442007,0.007028493033579888,1.027167,-0.1174678,0.09984689,1.014804,-0.150936,0.0662862,133.331249904518,2.356139270302959,0.804487545788158,0.003471000000000002,0.01130139999999999,0.008891259999999998,130.638066,17.339789599999992,10.107672380000002,0.0017840000000000078,0.005658750000000004,0.004501600000000001,0.01626546759052864,0.002833944272390428,0.0019527824094880992,5,STANDING
-5.8185086242187456e-05,-0.0024193387269531245,-0.004110487111953125,0.002277624965426367,0.008321323912919266,0.00593904988947415,0.006896555,0.01273926,0.00969264,-0.006030253,-0.02481139,-0.01970548,0.000664443006386492,0.009612496837050524,0.006677557489561043,0.0031442880000000003,0.014434045999999999,0.0068343799,0.23153679693900006,0.8945684678499998,0.7209543625299994,0.00142078635,0.005551344705000001,0.0036256511,0.00027215633068564506,0.0008072442868437692,0.0006271709095226129,0.0029330078073437496,0.0035838500529687496,-0.0037486552054687497,0.009601188888869109,0.007423748414946768,0.008337280862759868,0.0244408,0.01756218,0.02030669,-0.01641951,-0.0309996,-0.02062724,0.012900526448343426,0.00869837078151536,0.010696021508355826,0.014886067,0.007760745800000001,0.011283094,1.0352697121399999,0.85187843062,1.0036517586999998,0.00662414435,0.00404646,0.0048273790000000006,0.000993021784932722,0.0009818999448006436,0.001036561383710551,1.0205739375,-0.13854310546875,0.07401286828125,0.0021191526341249587,0.004874375952867399,0.003633565402909661,1.027036,-0.1272049,0.08334509,1.014837,-0.1520718,0.0662862,133.32168354715395,2.4598978065734505,0.7028617560006253,0.002666999999999975,0.007277000000000006,0.005073830000000001,130.63346400000006,17.7335175,9.473647140000002,0.0012784999999999602,0.0033179999999999876,0.00250185,0.01621073521869491,0.002735594596045287,0.0015808753572097221,5,STANDING
0.0006202866657109375,0.0037648777023437502,0.0007407803482031251,0.0030948046512915294,0.006362245029644983,0.005478265020894644,0.007276387,0.01863958,0.01414327,-0.009267778,-0.01347027,-0.01524848,0.0012752091362962532,0.006995515639148477,0.003911698324920542,0.003725465,0.0076088616,0.008045442,0.3153309681890001,0.7526142975,0.56967108623,0.0019106894999999999,0.0040174391,0.0039138995,0.000389808729102122,0.0007908515253320823,0.0006664745329301204,0.00439301099303125,0.0015412718943750001,-0.0032561141890625,0.014757130126430757,0.011684397974100365,0.011422808110617879,0.0405905,0.03113045,0.02262379,-0.03092159,-0.03243686,-0.04322442,0.030345143699622865,0.01777928640890254,0.0180586015672591,0.019424376,0.012078402,0.011779551,1.4790609499719998,1.1382764831200003,1.1468186304,0.008519282,0.005468381,0.006031513,0.001504934628520601,0.001282186805005926,0.0013187956736320158,1.0212077578125,-0.13428446328125,0.074693664765625,0.0030478674505353288,0.006816301841024105,0.005460918928520491,1.02821,-0.1184379,0.08763644,1.01161,-0.1520718,0.05868553,133.487945486391,2.3140837183387304,0.7179475445329206,0.0035929999999999573,0.008084599999999997,0.007876590000000003,130.71459300000004,17.1884113,9.560789089999998,0.0018025000000001512,0.0035936000000000162,0.003947190000000003,0.01633020194586257,0.0028551739888286465,0.0018147540169065207,5,STANDING
-0.0001433272791015625,0.0023164320969531246,0.00160853301,0.003091026236575073,0.0063080459552797875,0.005637128536307265,0.007276387,0.01863958,0.01414327,-0.009267778,-0.01347027,-0.01524848,0.0012255981957286545,0.005780134583515694,0.004398668362125998,0.003867419,0.0075835450000000006,0.008007931,0.308824682485,0.63028974219,0.61191200888,0.0019020525000000002,0.0033750455,0.004108806,0.0004010617506107919,0.0007625414072933395,0.0007291183018481727,0.003059626775921876,0.0024628152609375005,-0.00037665276171874987,0.01499477452610603,0.010989109569373068,0.01139386926801217,0.0405905,0.03113045,0.02262379,-0.03092159,-0.03243686,-0.04322442,0.029978186124377134,0.016233726481560767,0.01663515189753121,0.016213985,0.010699026,0.011324389,1.4614946165819998,1.0876439802,1.0605583188999999,0.008205253874999999,0.005329026,0.00519091,0.0014749748267233276,0.0013102600272960239,0.0012809660339377503,1.0209990234375,-0.1317973015625,0.07593839664062502,0.0030080077825303552,0.005816566087504728,0.0057083331957558,1.02821,-0.1184379,0.08763644,1.01161,-0.1511128,0.05868553,133.43335090830698,2.2277582259464803,0.7423008194844994,0.00367800000000007,0.006559199999999987,0.007536600000000004,130.68787499999996,16.870054600000003,9.720114770000002,0.0018730000000001246,0.0032112000000000113,0.0037846599999999953,0.016339686688765447,0.002786340232660757,0.0019011402190448078,5,STANDING
-0.0002777131511328125,-0.002257056467109375,3.478350921875005e-05,0.0019807024869717476,0.003902503037161213,0.004316995415822264,0.004692308,0.008276423,0.01133455,-0.005894736,-0.01207056,-0.009700691,0.0005120392878346474,0.0026014507328989116,0.0023856203920312336,0.002965164,0.006200914,0.00545321,0.20694131656499987,0.47964562859000015,0.4294424074399999,0.0014067048600000002,0.0030825682999999996,0.002636191445,0.00024091612608984474,0.000500329646430416,0.0005436086802815014,-0.0036079439222656247,-0.00014777854296875003,0.0023212706618125,0.006749749867619313,0.005383871842662644,0.004213850094705424,0.009651808,0.01458686,0.01171891,-0.01777415,-0.01160135,-0.01437724,0.007497776975569974,0.003713013058045136,0.002962538253573164,0.009454622999999999,0.007271161,0.00541387779,0.8203211667500002,0.5683170711,0.49348216108800025,0.004713401549999999,0.0035805425,0.0026219006999999997,0.0007703345198669481,0.0005752525281718195,0.0005292132629038323,1.0209004375000001,-0.13407601015625,0.076008878984375,0.0018649080982299736,0.0039697898365310185,0.004126538439069543,1.025468,-0.1238283,0.08714827,1.01574,-0.143184,0.06666255,133.40687118974787,2.30299337353793,0.7416803845056622,0.0027519999999998657,0.006314199999999992,0.005022079999999998,130.675256,17.16172930000001,9.729136510000004,0.0011959999999999749,0.0029824500000000115,0.0025978600000000074,0.016183088569041798,0.0025592172552820844,0.0017120170071658527,5,STANDING
0.000181605713125,-0.0017186222710937503,-0.00146145341640625,0.001693014333339601,0.004333644168419458,0.0036814935734656336,0.004692308,0.009334352,0.008819071,-0.004876628,-0.01207056,-0.009700691,0.00037110760549542075,0.002781969189014452,0.0020082228505336644,0.002296677,0.007417637,0.00481992,0.18004929158000005,0.5012258034999997,0.4029745311600001,0.0009680254499999999,0.0036112935,0.002377086,0.00020473805483372222,0.00045167759498723027,0.00048227165619650744,-0.0015405563046874998,-0.0007244964050781249,-6.606769298437502e-05,0.005642852485634789,0.004207546425868601,0.00417765164567773,0.008516866,0.009498893,0.009938884,-0.01338408,-0.01160135,-0.01031546,0.004379532531526033,0.0023332277717517786,0.0022345136912243356,0.009932064,0.005902277,0.005581096000000001,0.6419357052000001,0.4530777424499997,0.4311382137019999,0.0049151645,0.0031380129,0.002902497556,0.0006117473609857017,0.00043063789462139415,0.00043601897870599243,1.0211780468750002,-0.13583301484375,0.074728438984375,0.0016237363156629638,0.003391985160273263,0.003676064367083838,1.025468,-0.127627,0.08494946,1.016271,-0.143184,0.06542775,133.47932671219996,2.36315052606335,0.7165251894108672,0.0023519999999999097,0.003850900000000018,0.005081199999999994,130.71079000000003,17.38662589999999,9.565240189999995,0.0009040000000000159,0.002005350000000003,0.002482075000000007,0.01615339716764981,0.0025157267992284697,0.0016328646749441493,5,STANDING
-8.259614593749998e-05,0.001272128770703125,0.0005124133817968751,0.0016757158984108728,0.0033388253010437885,0.004202632594226928,0.00508071,0.009547867,0.0102795,-0.004898921,-0.007232957,-0.00945394,0.00036030027462536794,0.0016340564480180205,0.0022943600890755933,0.0025266480000000003,0.003793299,0.006140351,0.17138798211999995,0.36968850884999993,0.4497329403500003,0.00110837945,0.0018494576499999999,0.0030900255000000003,0.00022005986910176873,0.0004141708355754102,0.0005469661870644858,0.0006062141996875,0.0011323722402343751,-0.00119966587003125,0.003758078696049604,0.0038260394316993536,0.004029170335572207,0.008516866,0.01228363,0.007148675,-0.006600863,-0.008803018,-0.01031546,0.0018548033461253956,0.002037868111791581,0.0022621967094749295,0.006184103,0.005130909,0.0061380639999999995,0.4119845188200003,0.4090267410499999,0.43672236216400007,0.0029899910450000003,0.00241678115,0.0031206095,0.0004751511405947166,0.0004857203185137925,0.0004836279665628567,1.0209475546875,-0.13461917109375002,0.07539410390625,0.0016794778709123422,0.002958131066604605,0.003993921496146956,1.026011,-0.1274467,0.08494946,1.016118,-0.1418027,0.06542775,133.41910144874302,2.320777185968071,0.7296284560312075,0.0025240000000001928,0.003994400000000009,0.005904709999999994,130.681287,17.231253900000002,9.650445300000001,0.0011535000000000295,0.002057650000000022,0.0029490950000000057,0.016170845225334605,0.002477964440504319,0.0016963279348442349,5,STANDING
0.0041978554525,0.0232002855,0.01540691931296875,0.005089229427737445,0.032917563174614466,0.02058587535525767,0.01663841,0.08399439,0.06358103,-0.007131197,-0.0167168,-0.01543249,0.005570847560733796,0.20759285921743934,0.08462738263789238,0.0076406311,0.071450356,0.036934186,0.6225536218199998,3.803161494000001,2.5508033676600004,0.00329287205,0.0179662355,0.0179834815,0.0005723027878219946,0.0026735608631962542,0.0015210670636917802,0.017663580413281248,0.1044727909375,-0.11545152656249999,0.021181263219968268,0.046330458461787995,0.044824087907911286,0.06638039,0.238885,-0.05209834,-0.06081438,0.04532233,-0.2249153,0.09736294203008428,1.6718176547264059,1.9632964918256381,0.021487079000000003,0.0609962,0.06312025,2.8652277016999994,13.372517239999993,14.777795399999997,0.010769806500000001,0.03066621500000001,0.030241965000000003,0.002330068479133109,0.006022821741720933,0.006007802505929709,1.0081494203124999,-0.25099851093750003,-0.011182735817968751,0.003434782911270542,0.005722148833428889,0.004765257839388988,1.015949,-0.2350935,0.009428611,0.9974581,-0.270837,-0.02290218,130.09626258048993,8.068223421454624,0.01891344161924343,0.003948000000000063,0.006008699999999978,0.004659175,129.04312580000007,32.12780939999999,1.4683119527000001,0.001995499999999928,0.003004349999999989,0.0024247265,0.01620628400878924,0.004522810691974603,0.0007446795248158714,5,STANDING
0.00033543391312500004,-0.0030851784322499997,-0.004549659834296875,0.002436021501012157,0.006006655485303407,0.005990291784577752,0.006151487,0.008573848,0.01310886,-0.007131197,-0.0167168,-0.01543249,0.0007739797329238878,0.005836574217977098,0.007242624034840831,0.003493344,0.008800073,0.007698076999999999,0.2511842006600001,0.7139481588080002,0.81049996071,0.00166442995,0.0046101679999999996,0.003918076,0.0003210562478786829,0.0005452577194693781,0.0007641691966857396,0.012235944784375,0.0460711500390625,-0.05013406490625,0.011451895023921205,0.026970085620713322,0.03400718044535398,0.03352284,0.09940157,-0.005976633,-0.008866269,0.005060319,-0.1138757,0.03595062328386369,0.3647918571917331,0.46974883659097016,0.01878057,0.042495809999999995,0.05666132,1.7277474915999995,5.897107204999998,6.4171603080000015,0.0084737145,0.022656495,0.03287589,0.0010227578311731238,0.0029023665177593462,0.0032918111983702572,1.0093213359375,-0.2478147859375,-0.0135884849609375,0.002304094196606004,0.00460161036134251,0.00522145784381054,1.015505,-0.2365285,-0.00435058,1.001638,-0.257226,-0.02615563,130.39806310767696,7.86346789723732,0.02712454983018434,0.0028599999999998627,0.00695019999999999,0.006621218,129.19313100000002,31.720292599999997,1.7393260750000006,0.00141099999999994,0.003131549999999983,0.0025658224999999995,0.01607190672863913,0.004253917962065448,0.0008079482047896432,5,STANDING
0.0003014134542734375,0.0012261936677500002,-0.0028215438206249995,0.002402971923654172,0.0048125498032514325,0.006135207113883282,0.006151487,0.01315523,0.009293779,-0.00454233,-0.01019937,-0.01529079,0.0007507358894447718,0.0031570158745095173,0.005837040110329748,0.003450142,0.006700705999999999,0.009266746,0.24718787444700002,0.5157742184079999,0.6968529210599999,0.0016282978,0.003592263,0.0043316865,0.0003034441056601054,0.0004422743593747601,0.0006663590847966432,0.01471535150625,0.012675679117734377,-0.01124142163046875,0.01113781256301013,0.015591159293790995,0.014549422448920239,0.03335466,0.04627664,0.01828532,-0.008866269,-0.0180936,-0.05081937,0.04359583214607878,0.05168090742017698,0.0432710724955027,0.018404992000000002,0.023375775799999998,0.0197021402,2.0267486031999997,2.0398298977300016,1.8902645294999993,0.007902254999999999,0.01197024535,0.008955684,0.001065966392446805,0.0016094957214428727,0.0015795042479633944,1.009790109375,-0.24547545703125,-0.015921801078125002,0.002360561715574725,0.004853871665222573,0.005263374986848732,1.015505,-0.2347644,-0.00435058,1.004966,-0.257226,-0.02887809,130.51924956712796,7.716065289579969,0.03599447882541661,0.003273999999999999,0.007240700000000017,0.007606380000000001,129.25313399999996,31.420858499999987,2.037990537999999,0.0015899999999999803,0.003691449999999985,0.0037089899999999997,0.016073205235195707,0.004269878047167646,0.0008005670440373587,5,STANDING
0.0005273885559921876,0.0016895626728906249,0.0006399213671874999,0.0021590301452530784,0.0038511305656029463,0.0047324310580461664,0.005911497,0.01315523,0.01411927,-0.006345916,-0.006261663,-0.01529079,0.0006322623817091908,0.0022637860683451627,0.0029190915936439157,0.0027436583,0.004641678,0.0052035250000000005,0.22403907654699992,0.41448715452999985,0.4592458702200003,0.0013904628,0.0022369032,0.002593408,0.0002875764956403404,0.0004350575526390349,0.0005865807759764135,0.015418441789062499,-0.001545000670546875,0.0036163485570312503,0.011063261662419667,0.009809865251083315,0.010880611013433177,0.03335466,0.02448806,0.02390865,-0.01477824,-0.02052372,-0.02788981,0.04609588554417585,0.012623421864499471,0.016827606132682926,0.014592766,0.0062371312,0.010373959799999999,2.1889876049999994,0.9383202390300005,1.2316950975000007,0.0067447850000000005,0.0031185655999999996,0.0052246924,0.0011879155825738003,0.0009979018907781399,0.0011159880793287047,1.0102562968750002,-0.24463933359375,-0.0162415676015625,0.0021634375437287858,0.0033976519302002283,0.003970323326397135,1.015463,-0.2347644,-0.00423016,1.00334,-0.2537182,-0.02887809,130.63967562721203,7.66207329021861,0.035782654140449004,0.002811000000000119,0.003473799999999999,0.004861570000000001,129.31280600000002,31.313834700000005,2.0789206530000004,0.001403500000000113,0.0016496499999999886,0.002397660000000001,0.01606620576247775,0.00421574352834198,0.0007663727444997325,5,STANDING
3.2003923281249995e-05,-0.000562573351328125,-0.00029082933835937496,0.0022251121586074184,0.0028801396495061094,0.003707698962152583,0.004049771,0.006017074,0.01411927,-0.008133458,-0.007277362,-0.008810594,0.0006338749912944584,0.0011022967265640615,0.00177044650214373,0.002978548,0.003516311,0.004818482000000001,0.22033986756000007,0.2999824054300001,0.3686094777100001,0.0014770830000000001,0.0017369402499999998,0.002095688,0.0002808507974559629,0.00036447355024392825,0.0004608392362071237,0.00312758665234375,-0.0060732518828125,0.00951085225,0.009249131036633827,0.003758975700804433,0.004435488782711016,0.02461655,0.002966135,0.02390865,-0.0154806,-0.02052372,0.001359982,0.01220201256969496,0.0065298287041694394,0.014096623521649324,0.015163574999999999,0.0048132470000000005,0.005413099,1.0366227459000006,0.7890056393999997,1.2173890879999998,0.007581787499999999,0.0024124069999999992,0.0027065495,0.0009004022517941229,0.000527165235798179,0.0006788050645503562,1.010144,-0.24523304609375002,-0.016717997835937498,0.0022085888488184158,0.002857038063791501,0.003560294653090207,1.014069,-0.2382996,-0.00423016,1.002174,-0.2517866,-0.02538793,130.61065966088992,7.698868424053408,0.037397395156381893,0.002885999999999944,0.003185400000000005,0.00494876,129.29843200000005,31.389829900000002,2.139903723,0.0014260000000000383,0.0017634000000000122,0.002415219999999999,0.016059730689442567,0.0041798038671069515,0.0006964725030021348,5,STANDING
-0.000413725171328125,8.311265335937507e-05,-0.00103117040390625,0.0021213384946970415,0.0033395184645685244,0.003440237308192286,0.003522389,0.007094254,0.007921262,-0.008133458,-0.007277362,-0.008602762,0.0005979194273886716,0.001428389284907847,0.001651013777736997,0.002432258,0.004547548,0.005006561,0.20532049971,0.35149366803000015,0.3788891091,0.0012741425,0.0020968319000000003,0.0025070810000000004,0.00027454612947273654,0.00036862624319571643,0.00045737516181290844,-0.00184305352109375,-0.00453180617703125,0.00637998093246875,0.005248249416039505,0.0038752191543948416,0.004574604754071023,0.01197573,0.003829208,0.01809767,-0.0154806,-0.01399862,-0.003725647,0.003960443931465608,0.004550987612258209,0.007888789165393156,0.007977003,0.0061581940000000005,0.006735976000000001,0.5977921193000002,0.6477857408600004,0.8511135755559999,0.0031267400000000002,0.003008996,0.0033731115000000004,0.0005703297040575905,0.0004745839199780165,0.0005574810234017333,1.0096904453125,-0.24501904687499998,-0.017784075625,0.0021197893977372645,0.003001297733818068,0.003353543624990621,1.013794,-0.2382996,-0.01012489,1.002174,-0.2514682,-0.02557545,130.493348974393,7.685547663311418,0.041922508887095616,0.0026239999999999597,0.003648600000000002,0.004917509999999998,129.24037699999997,31.362438000000004,2.2763616799999995,0.0013579999999999703,0.001810100000000009,0.00249845,0.016046804259925097,0.004175768128438074,0.0007166257802424492,5,STANDING
-2.8958115234374915e-06,0.0014789517866406249,0.00014217962210937493,0.0020912884124219774,0.0026947790462773513,0.0037392790468714207,0.006313647,0.007330521,0.01172435,-0.00517858,-0.005557761,-0.008602762,0.0005598074380358161,0.0012094889594192598,0.0017923101229202947,0.00265783,0.0037751904999999996,0.0051291259999999995,0.20308845536500003,0.3042295073100001,0.3843102166700001,0.0012219903625000001,0.0018104604,0.0023604235,0.0002682802408793001,0.0003483744494193207,0.0004944874260001822,-0.002207139922734375,-0.0019717160275781248,0.0032931694738750003,0.003881650788804769,0.0033543817896148176,0.0030818251745107143,0.006801737,0.005208994,0.01042214,-0.009453597,-0.01017049,-0.004894007,0.0025521509740488424,0.0019378612843402197,0.002603854283508499,0.005222806,0.0051064822,0.004137092,0.50191591171,0.39483815559,0.4795208914560002,0.0024369373,0.0025796160000000003,0.002130944,0.0004687029807376283,0.00041592122780967095,0.00046427144849778783,1.0097765625,-0.24357020546875002,-0.0176257101015625,0.0020538148565154906,0.0026354269289549106,0.003581075280965856,1.015896,-0.2373351,-0.006262776,1.004961,-0.2505096,-0.02557545,130.51557431421205,7.594673979799929,0.041406688864290164,0.0027530000000000054,0.003753499999999993,0.004933440000000001,129.2514,31.176986299999992,2.256090893000001,0.0012965000000000337,0.0018405499999999964,0.0025568450000000003,0.016041495840061704,0.004138148932064964,0.0007524995846376145,5,STANDING
-8.72514912109375e-05,-0.00044330449328125004,0.0005637156553124999,0.00213692685696509,0.0034356647023690897,0.003625705542005844,0.006313647,0.007330521,0.01317547,-0.00645538,-0.009753124,-0.006876962,0.0005854808594863657,0.0015360397850711334,0.0017233300502241655,0.0025943340000000002,0.004546146,0.004749859,0.20589195058500004,0.3456995364799998,0.3690664002200001,0.00121221196,0.001960462905,0.002385556,0.0002884156301440376,0.00043478918973098666,0.00047616648768626055,-0.0015511572224999998,-0.002354368136484375,0.003652468692578125,0.0037878536768266593,0.0030337037885521385,0.0033020025039671146,0.007876131,0.005208994,0.01249668,-0.0117727,-0.01086651,-0.005267949,0.002144502298363282,0.001887540223842369,0.0031031997550679613,0.005906741,0.0041931117,0.004364990000000001,0.42929674734000006,0.39925130213000004,0.52587033055,0.0029277749999999996,0.0021036085,0.002177685,0.0004855798189249686,0.0004237990391036721,0.0004943394708806831,1.0097259765625002,-0.24395393671875,-0.01676875578125,0.0020955076259437004,0.00309745261318351,0.003536840155757102,1.015896,-0.2368059,-0.004097803,1.003571,-0.2523957,-0.02508287,130.50252017885498,7.618959034018151,0.03759365231853839,0.002729999999999899,0.004128500000000007,0.004878059999999998,129.244925,31.226103900000012,2.1464007399999994,0.0012990000000001611,0.0021307500000000007,0.002550114999999997,0.01605910182589261,0.004209577896289807,0.0007199334764357113,5,STANDING
-0.00039144398414843755,-0.0021641817169921872,-0.0008237298730468751,0.002104923578691578,0.003412949552094153,0.003982737184506548,0.004251927,0.005895882,0.01317547,-0.00645538,-0.009753124,-0.01310733,0.0005867432531017932,0.002090484115110774,0.002117212977228923,0.002589972,0.004527727,0.004977652,0.2042379398310001,0.43844062196499994,0.40871317735000007,0.0012946367999999999,0.00237417475,0.0024960815,0.0002637948723430587,0.0004722717636330167,0.0005080674735459524,-0.0004938278339843749,-0.0008034543046875,0.001179929425390625,0.003356447735049928,0.0038437524049990427,0.0046616697244277,0.01130631,0.007734328,0.01249668,-0.0117727,-0.01086651,-0.008749417,0.001473229737950655,0.0019737563354440706,0.0029597949527742046,0.003365415,0.005352574000000001,0.007512665,0.3142990346500002,0.4213653992000002,0.5161694067500001,0.0016875122999999998,0.0027771755000000004,0.0037784155,0.0004216241889621154,0.00044614793442105283,0.0005311542187546863,1.009357921875,-0.24623629218749998,-0.0176614638046875,0.0020939637301709657,0.0035258271987225163,0.003945313095107007,1.014231,-0.2368059,-0.004097803,1.003019,-0.2544247,-0.03008089,130.40739828939803,7.7625271101034405,0.04191907829026682,0.00216700000000003,0.004452200000000017,0.004965750000000001,129.197814,31.518245399999998,2.2606673669999986,0.0011385000000001533,0.0022261000000000086,0.00256143,0.0160257213942716,0.0042961095351365716,0.0007681654100462626,5,STANDING
0.0003347643424140625,-0.0003022623585546875,-0.0002820164148437498,0.0019343112462554726,0.003886495098862884,0.004656452014151497,0.004845951,0.0105049,0.008585231,-0.006237411,-0.007821312,-0.01310733,0.0004932642767798169,0.0019451144559211853,0.0027855460631471176,0.0019009761,0.00558086,0.0067135879999999995,0.18881377721099993,0.4024881709850001,0.4923368835000001,0.0009817739,0.0027734028,0.003620771,0.00026405130117757833,0.00046901200954071163,0.0005809172445438845,0.00046817678570312506,0.002322596571171875,-0.003220978975,0.003134685834596496,0.003369467583110329,0.004119346448139689,0.0113767,0.009313939,0.005568408,-0.006184605,-0.00460703,-0.01306043,0.0012858169323892788,0.002143714128134492,0.003499996251800721,0.0034073239999999998,0.00457283829,0.0049916809,0.2908943171699999,0.45239289571,0.5445668838000001,0.0016426675699999999,0.0022767484500000002,0.0024180645,0.0003850401874031142,0.00046111715352967593,0.000582808650341914,1.009828625,-0.2469195125,-0.018290511953125,0.0018796226183731616,0.003377316483471936,0.004336613458305314,1.014014,-0.2373135,-0.01015918,1.003019,-0.2544247,-0.03008089,130.52894526087397,7.805523445743001,0.04522867760565291,0.0017970000000000486,0.00401180000000001,0.0066675,129.258064,31.60569760000001,2.3411855299999993,0.0009774999999999645,0.0020273999999999848,0.0033079850000000003,0.016033008493734523,0.004272825215881947,0.0008421707677388098,5,STANDING
0.0008531180974218751,0.00274187871859375,0.0017945788566359375,0.0018875172438124871,0.0036855053262662796,0.004235116591996465,0.005589781,0.01292759,0.01440508,-0.004571558,-0.006526757,-0.008784454,0.0005491880747312906,0.0027009085974290456,0.002708060905022527,0.0023919391,0.0044635321000000006,0.0054876492,0.2134796270899999,0.4631274955199998,0.4537542382306,0.0012290972000000002,0.0022294202,0.002480466,0.00023714660976853843,0.000475590365085911,0.0005521669262416626,0.002799266545390625,0.001233596877875,-0.0024239185365625,0.004946545866770994,0.003778824843632793,0.005044194158640115,0.01334825,0.009313939,0.01226595,-0.01266184,-0.01110292,-0.01306043,0.004134938778139183,0.0020225636423627964,0.004008867300089646,0.007379256900000001,0.005583905,0.0073496559,0.5606935690100002,0.4185038097120002,0.5718677387200002,0.003126007,0.002798272,0.0036606265,0.0005889495615096654,0.00047991530543196734,0.0006061501223830455,1.0106915156249998,-0.24391155546875,-0.016629518179687497,0.0018852491835645664,0.004111261417527633,0.004428951130668339,1.015918,-0.2331843,-0.002676076,1.005542,-0.2538186,-0.02704317,130.75211442186804,7.61724791828843,0.03790802982481988,0.0026770000000000405,0.005706700000000009,0.0046982099999999995,129.36851399999998,31.220679099999987,2.128578327000001,0.001231500000000052,0.003024349999999995,0.0027186999999999992,0.01602230392465273,0.004270893547447735,0.0007969694379446876,5,STANDING
0.00029199637578125007,0.0013674709632812499,0.0005653670564015625,0.0020409822012798927,0.004097155561522579,0.004192022493611538,0.005589781,0.01292759,0.01440508,-0.005955716,-0.007835434,-0.01296622,0.0005441113893645698,0.002388052547933792,0.0022902646394123848,0.0030422039999999997,0.005823687,0.004272818,0.21549716736000007,0.43903117170000033,0.39497444800060005,0.0015211019999999999,0.0028330200000000003,0.002385524,0.0002644204119574118,0.00048029010377614444,0.0005389129206595423,0.00031161400359374985,-0.00043564620220312505,0.0009825199477343752,0.007295795947193455,0.003963506305477256,0.004569018470668006,0.01334825,0.0104444,0.01226595,-0.017479,-0.01110292,-0.01057889,0.006825694949160979,0.002035093740422652,0.002795683229824174,0.010230852,0.005284412,0.0059353719999999995,0.7442644920599999,0.40343488854200016,0.47795155042999987,0.005337667,0.0026368955,0.0029670955,0.0007100759331383848,0.0004859770188672817,0.0005904618916357945,1.010819765625,-0.24218985625,-0.0159467070234375,0.0020040358907261052,0.003053937499277315,0.003940362393022354,1.015918,-0.2331843,-0.002676076,1.00465,-0.2497032,-0.02774195,130.78535868646802,7.509152384594582,0.03453746184700104,0.0027690000000000214,0.004261199999999993,0.004536729999999999,129.38493,31.000301600000004,2.041178499000001,0.0013450000000000406,0.002059499999999992,0.0020022799999999995,0.01604883268349474,0.004171410868306175,0.0007836145268957646,5,STANDING
-0.00037946079296875,-0.000461930775234375,0.000506035197421875,0.001654153863013403,0.002804093239077221,0.0040550657558927556,0.005369383,0.005537928,0.01019252,-0.005955716,-0.008319196,-0.01296622,0.00036866758347809737,0.0010337688236220436,0.002137552627922417,0.0020502716,0.003474698,0.005599055,0.17202812675999998,0.28447204516999997,0.42603462186999996,0.0010147290999999998,0.0017936965000000002,0.0027270680500000003,0.0002196947013912754,0.00038106372272097986,0.000533879289785399,-0.00294422857890625,-0.00016514982124999999,0.0013644163672656248,0.006607590123553441,0.003927423905870541,0.003728104792133192,0.01072059,0.0104444,0.01161285,-0.017479,-0.009841199,-0.01132028,0.006698077333213354,0.0019778474239823774,0.002017330862641766,0.008033937,0.004976886,0.0038996616,0.7378405310999997,0.3910856738799998,0.3918431505300002,0.004123296,0.002518812,0.0019498308,0.0007950114775340941,0.0004834884060041084,0.0005049683077406636,1.0104279218749999,-0.24257717343750002,-0.014805754078125,0.001663144323494343,0.0026973704050914445,0.003977911517916998,1.016228,-0.2363509,-0.005414703,1.00465,-0.2507422,-0.02774195,130.68382097326997,7.532922992643739,0.03008436913488536,0.0019970000000000265,0.0030425999999999787,0.005433180000000001,129.33477399999995,31.0498782,1.8951365219999992,0.0009375000000000355,0.0015393000000000212,0.002710994999999999,0.016003037648104575,0.004150940274979158,0.0007540831987680597,5,STANDING
-0.027423536419375,0.10826019883593749,0.0565136401171875,0.0323846401659806,0.1409294187707225,0.10276427125081793,0.01269454,0.3860896,0.2920406,-0.09473339,-0.03635034,-0.03687977,0.23050435435837843,4.042415581062452,1.7605487315208543,0.059708157,0.25362233,0.15782878,4.120481810119999,16.280044015000005,10.247697165,0.027723229,0.08604139499999999,0.0282125745,0.0029985887297099088,0.012199432364992683,0.009010274878674911,-0.0194046051953125,-0.0941628840625,0.063357475046875,0.024803471066742404,0.023198747076599056,0.042119094478895044,0.07282671,0.03468009,0.09443355,-0.06115461,-0.164254,-0.1179507,0.12694411260731858,1.2038183169141554,0.7408880337967966,0.00848256,0.024623270000000003,0.02418887,3.7420764309999996,12.147157940000001,9.338135191999998,0.0040993049999999975,0.011391915000000002,0.009753569999999996,0.0026856427754082222,0.004306287063120034,0.00564852895301912,0.9264601265625,0.16874141171875,0.37832932421875004,0.0057159389539181964,0.007473026854844163,0.008147775441720904,0.9403026,0.1871752,0.4067535,0.9024631,0.1398434,0.3659201,109.87021287274612,3.6517773003788703,18.3295313674835,0.005674400000000079,0.0049313,0.006413599999999964,118.5868962,21.598900699999994,48.426153500000034,0.002709549999999894,0.0026522500000000088,0.0030725000000000058,0.015184415460876805,0.0035388196937590636,0.006795146723007256,4,SITTING
0.001994011503804687,-0.01065648041796875,-0.01244282411484375,0.006942259779886849,0.020171420944219132,0.013504460604741721,0.01269454,0.05254424,0.009012694,-0.02190997,-0.03635034,-0.03687977,0.006677894749278725,0.06661719011935151,0.04316087400677863,0.009219546,0.029273348,0.0240832783,0.7653154758869999,2.4557438446999984,1.8901415318999994,0.004442337100000001,0.0143174423,0.012277825000000001,0.0006347410830523348,0.0015947111714458536,0.0009768768213116773,-0.021383468203125,-0.07442173312499999,0.07113201546875,0.006700991171062047,0.020785345762675066,0.01719301136723831,-0.007324795,-0.03048957,0.09443355,-0.03725248,-0.1199051,0.03342644,0.0642759673687948,0.7642399948547424,0.6854864978586211,0.010747840000000002,0.038512769999999995,0.027834360000000002,2.7370839300000007,9.525981840000002,9.104897979999995,0.005335130000000001,0.018079699999999997,0.010424220000000005,0.0009631227024860495,0.003103494605765475,0.0023452807630562665,0.92869599921875,0.16787158515625,0.3749473578125,0.0026387286135293978,0.0029048895412812667,0.003484213304737202,0.9358822,0.1759646,0.3844061,0.9230763,0.1598397,0.3659201,110.39785239726187,3.608231358223251,17.99650059173476,0.0037911999999999946,0.004217699999999991,0.0041228000000000375,118.87308790000002,21.4875629,47.993261799999985,0.001867400000000019,0.002099599999999993,0.002042499999999975,0.01484665436388212,0.00296539714871969,0.006315520235764286,4,SITTING
0.0004990939870546875,-0.0012304450351562498,0.00085362916484375,0.003737227171066631,0.011876825610931363,0.006329364337061176,0.01036702,0.01207437,0.01026963,-0.007755159,-0.03087381,-0.01586949,0.0018196431022173233,0.018249341641858027,0.005221060564778712,0.005997608,0.014604876,0.008405129,0.3832424149910002,1.2395378097000005,0.6773818940999997,0.00213845625,0.004756782,0.004292946000000001,0.00040515316872452253,0.000983034327607144,0.0007221201452986363,-0.01210499642734375,-0.041721848828125,0.042792488906249995,0.005470382058091916,0.018602533286077836,0.018273476667267356,-0.0005715414,-0.01496626,0.08379378,-0.02260026,-0.08078861,0.01659753,0.02258637035103985,0.2671061650299584,0.2771349832064889,0.008486857,0.02739499,0.027888560000000003,1.5494395426999996,5.340396650000001,5.477438580000002,0.004419051500000001,0.013756795000000002,0.013629520000000001,0.0007230166185396448,0.0022892839278438482,0.002263247803396948,0.9281175492187501,0.16851103515625,0.37512042343749996,0.00219430887297103,0.0029597495431832425,0.003953856084659722,0.9346583,0.1744584,0.3829644,0.9214067,0.1598397,0.3638358,110.26009602038386,3.6358053231090293,18.01356352740704,0.0031157000000000545,0.004662399999999983,0.00490560000000001,118.79904630000001,21.569412500000006,48.0154142,0.0015595500000000206,0.0023987999999999787,0.0026411000000000073,0.0147931625055568,0.0029670910836528197,0.006375543668448428,4,SITTING
-0.011484648267375,0.026879096379296877,-0.00505578716296875,0.06137920493300782,0.04436610724668404,0.07970117054816481,0.1424521,0.1640892,0.2127235,-0.2358983,-0.03245336,-0.2134469,0.49911090483628684,0.34442717368215053,0.816363209034866,0.004880717099999999,0.019923233999999998,0.012043857,4.032401298024,3.6825684725500007,5.53648822626,0.00244192995,0.0038580444999999994,0.0057420045,0.006198702881619228,0.004878774594012133,0.006958819343196347,-0.010372026851562502,0.043195859809375,-0.004316794205468747,0.23513206057032113,0.38353093421768547,0.21004881594761637,0.5710075,1.134195,0.5143666,-0.7163907,-0.8132629,-0.5680432,7.090517100679001,19.06711805523991,5.649809893530621,0.0119518627,0.030098186,0.029061352,17.172313416399998,27.97136254559999,15.868523113699995,0.005859386499999999,0.014299270000000003,0.014417638,0.017135561732721013,0.026191722470494117,0.01553313335844486,0.91742662734375,0.19544655546875,0.36624726953125,0.06048355705394328,0.04816161226373787,0.07588590968207282,1.069117,0.3354184,0.5639844,0.6960658,0.1384194,0.1615828,108.20222428585294,5.186418808376551,17.906653917103586,0.0062693999999999805,0.0299672,0.011952799999999986,117.43060830000007,25.017159099999997,46.87965049999999,0.0023305999999999605,0.0038261500000000004,0.005770950000000052,0.020282658576501057,0.007801363769918768,0.012221532510453412,4,SITTING
-0.065796853784375,0.10083268419179686,0.044219182463593756,0.07960462858803899,0.07208206977091787,0.10348802589762426,0.1424521,0.2290005,0.2127235,-0.2358983,-0.03245336,-0.2134469,1.3652637261519431,1.9664710379241113,1.6211337730478013,0.122064556,0.13532951999999998,0.124712316,10.947516958799998,13.148627712550006,11.749920532059999,0.06193763499999999,0.05457117,0.06612711018,0.0068822803368690484,0.007110300642858548,0.00701853148663746,0.024599318202343755,0.042226722028281254,-0.06043341967421874,0.24405959924397672,0.3916753571952452,0.2388383611629962,0.5710075,1.134195,0.5143666,-0.7163907,-0.8132629,-0.5680432,7.7017874482112845,19.864663230371434,7.769083004997896,0.121734486,0.2721485,0.31895430999999996,20.631894809499993,32.70380942157999,23.671772213699995,0.035077933,0.117727145,0.11972379999999999,0.015687048669652513,0.02702777604435703,0.015057554842503831,0.84332482265625,0.31423705468749996,0.41913882968750005,0.0918104987689046,0.10670028065712844,0.1005589174764642,1.069117,0.4702471,0.5639844,0.6960658,0.1384194,0.1615828,92.11211829662598,14.096624183166059,23.78105016778823,0.15873859999999995,0.2228537,0.11644569999999999,107.9455773,40.222343,53.64977020000001,0.07256889999999999,0.11047989999999999,0.0660599,0.020118454916433222,0.01305634251380558,0.01300026080677963,4,SITTING
-0.054337738488281245,0.08939494665,0.0411440983359375,0.06334380036536458,0.07442878945804508,0.06993545789525554,0.02324337,0.2290005,0.2085871,-0.1942444,-0.01578497,-0.0395927,0.8915234391997446,1.731980951903533,0.8427270526587336,0.1156128,0.1428404,0.11758022000000001,8.163188047499998,11.873530670800006,7.902823283000001,0.05498807,0.07270025999999999,0.042906845,0.005576171728337805,0.00592427552019637,0.006485612723508538,0.023801117290625,-0.037183543945156244,-0.011475301718749997,0.06611433145768646,0.08053012375802142,0.1369591528909225,0.35372,0.2714462,0.1113087,-0.02735073,-0.1983637,-0.3611059,0.6320125450725012,1.0070677469188622,2.417854990097337,0.05218591,0.03786191999999999,0.052580089999999996,4.906120330800002,9.367890864980005,13.517338539999997,0.0180975885,0.01780938499999999,0.016273475000000003,0.008156164152360819,0.007774557620675932,0.01009197930541316,0.778603784375,0.42112247187499996,0.4677963890625,0.02911902090930653,0.03322386024098949,0.028421638305100822,0.874014,0.4702471,0.5582344,0.705209,0.3064895,0.3965745,77.70518661398887,22.841339034550145,28.114080146414047,0.013082299999999991,0.01433970000000001,0.029188199999999997,99.66128440000004,53.90367639999998,59.877937800000026,0.006499950000000032,0.006131849999999994,0.007678600000000008,0.014881843922378554,0.009922251520988686,0.010268160075967082,4,SITTING
0.005381491798437499,0.006763776568125001,-0.014053555924765624,0.015489910718391486,0.029178619419781556,0.013222967930259977,0.02324337,0.0898956,0.01336344,-0.03869595,-0.0197529,-0.0395927,0.03441891686916985,0.11483398460262025,0.047660712321945436,0.018582721,0.0295213,0.020631165,1.7553376883999998,2.600174493079999,2.09401698323,0.0090808295,0.009258332000000001,0.0116227616,0.0012441392997641805,0.002496302358539552,0.0009830746063987062,-0.0154771018828125,-0.0353492692265625,0.0517038584375,0.004974388068455033,0.018624326605833495,0.012929602316971208,0.006222564,-0.002610486,0.07744526,-0.02735073,-0.1373512,0.02851897,0.033828508076357885,0.2043438561757127,0.3635793399552086,0.004939799999999999,0.019164759999999996,0.01940091,1.997818825000001,4.524706461000001,6.61809388,0.002276545000000002,0.008768155,0.010301600000000005,0.000861182505632645,0.0029945799179065327,0.0018937320246181955,0.778331659375,0.43380584296875,0.45340585234375,0.0034210828397790707,0.0038438458237381613,0.003931088497973654,0.7856816,0.4489616,0.4662367,0.7676861,0.4235446,0.4444582,77.54392010153443,24.089892421701684,26.315817010731703,0.0035305999999999393,0.0030392000000000197,0.005191000000000001,99.62645240000003,55.52714789999999,58.03594909999999,0.0018219500000000166,0.0014753999999999878,0.002204600000000001,0.012573782688101378,0.00724799416676846,0.007524589081124895,4,SITTING
0.0027169522732812504,-0.0036173581980468747,-0.002785184709140625,0.008735355362029225,0.0078797196294662,0.009730676412274528,0.02273598,0.008079249,0.01168064,-0.01101388,-0.0197529,-0.02880869,0.010712097658396277,0.009622433506812399,0.013112744614966603,0.013470683,0.013146871000000001,0.0128744,0.8896364250199998,0.8549930075499999,0.9540936690299999,0.00434592385,0.005240281,0.0052427299,0.0007291204133795704,0.0007080295590674616,0.0009223897166577421,-0.014317010546875002,-0.017571495132812504,0.031101473609375003,0.0033090641594463064,0.009214747487537405,0.013265437042582508,-0.007281921,0.00757058,0.05846808,-0.02059122,-0.04030338,0.008730662,0.02763861716616474,0.050389633595075874,0.1463390055174873,0.0057963400000000005,0.014457670000000002,0.023677089999999998,1.8325773500000002,2.2642925369999998,3.9809886219999995,0.002928105000000001,0.0059954480000000004,0.01170832,0.0005716657214088016,0.001260589912597072,0.0016006765677478855,0.77835975546875,0.43377549218750006,0.45222259765625,0.0022486282926281053,0.002295245137051314,0.003395680727512177,0.7851748,0.4409072,0.4613826,0.7706567,0.4267952,0.4446757,77.54866755360904,24.08530505891162,26.178151485256922,0.002999799999999997,0.0025047000000000263,0.004108899999999971,99.63004869999999,55.523263000000014,57.8844925,0.0015368499999999785,0.00131929999999994,0.00201345,0.012451246790414018,0.007093056371513774,0.007485618125127826,4,SITTING
-0.001374050682734375,0.001429395058828125,0.00058972049359375,0.0034014138638945313,0.002887503196588088,0.004183772917954242,0.006217252,0.008079249,0.01168064,-0.01101388,-0.005411147,-0.007601987,0.0017225768386837396,0.0013287481528971117,0.0022850209394651906,0.005566614,0.0042273462,0.005615394,0.3915615990499999,0.3140471950700001,0.4270951886199999,0.0028040255,0.0016902604,0.0025850342500000002,0.0003268531428543016,0.0003334454510569944,0.0004866916381222572,-0.008026776628125,-0.007522930771484375,0.01392440072265625,0.004527771067406271,0.006393687901254123,0.008608671886280346,0.002578788,0.01453529,0.0346931,-0.01810745,-0.01935364,-0.007972494,0.01087102129621185,0.012476637743512306,0.03430376539273518,0.007024096,0.008394744999999999,0.011167492,1.0348704574000003,1.1153079237499994,1.8211277139000006,0.0034612604999999996,0.0037847209999999996,0.005700293500000001,0.0005476241090807448,0.0009294779861224894,0.0010989301007520973,0.7780774515625,0.43399897734375004,0.451276503125,0.0020426713823058517,0.0022029581839048983,0.003388679666019862,0.7830879,0.438958,0.4610676,0.7706567,0.4267952,0.4442089,77.49231272145543,24.110075566103163,26.0687315740937,0.0024857999999999825,0.002719499999999986,0.004627900000000018,99.5939138,55.55186909999999,57.76339239999995,0.0011063999999999519,0.0013917499999999972,0.00221360000000001,0.012406211696550899,0.007058360317334986,0.0074745009384775225,4,SITTING
0.00040755258203124995,7.186188076718749e-05,-0.00072973684046875,0.0026829839201007533,0.00244460369409367,0.0033326419039597394,0.006217252,0.009097127,0.009593201,-0.005840172,-0.005411147,-0.007601987,0.0009426562332978615,0.0007656001729387287,0.0014897942932948112,0.003728663,0.00294945,0.0037910185,0.2855700130400001,0.22840378126819996,0.34504402046000004,0.0017391000000000002,0.00119226405,0.0019059363,0.0003068979732736282,0.00032428325384077986,0.0004231313114379078,-0.0033459591514843744,-0.00012898187964062506,0.0035190524142968754,0.0024759554547461628,0.007403997052764534,0.006560806803761194,0.003037348,0.02285444,0.01891969,-0.009441856,-0.01745321,-0.009819652,0.002217702151333033,0.007018983511375554,0.007094773223788525,0.0034865270000000005,0.01081164,0.009800103,0.4639796609900001,0.757920562506,0.7405809283699998,0.001674801,0.0046650933,0.004534042,0.00035690044970443396,0.0008456704440270812,0.0007319263802318687,0.778354190625,0.43409094609375004,0.450661371875,0.0022543215265850196,0.0023577519826859946,0.002968846079812025,0.783101,0.4430884,0.459491,0.7731562,0.4290432,0.4438996,77.54756198771764,24.12038508479731,25.997374226854745,0.002239299999999944,0.0025656999999999486,0.0036790999999999907,99.6293364,55.563641099999984,57.68465560000001,0.0011219500000000382,0.001388000000000028,0.0018292999999999782,0.012445816582877179,0.00709346012093761,0.007426188463149712,4,SITTING
-0.00025082533100000007,0.0005245478839703125,9.086002062500003e-05,0.0028443492123047726,0.0026552063069041633,0.003991487819972857,0.008419753,0.009097127,0.009593201,-0.006076621,-0.004510015,-0.01229156,0.0010436141808908856,0.0009376346898945759,0.002040349511723474,0.003508423,0.0034769629999999996,0.004914079,0.27883167211199994,0.2602681824581998,0.38815584268000003,0.00175844433,0.0017395795,0.0025044672500000005,0.0003299516114378087,0.00035053294667712186,0.0004529938576132406,-0.0005436304092968751,0.0009225426366718751,-0.0006388664337500001,0.003132009232618534,0.006406947895380611,0.00410276427253379,0.006621113,0.02285444,0.01058067,-0.00843112,-0.01509844,-0.01167465,0.0012934420294553636,0.00536320848007674,0.002206825599507478,0.004856274,0.006962660000000001,0.006047999,0.3376628495900001,0.6358927342180001,0.43057532458000003,0.002428137,0.00382776945,0.0030045558,0.00036531145136815525,0.0007338674843432524,0.000515640767473078,0.77801465625,0.43491191953124997,0.45093948906250003,0.002530204940740663,0.002620884775911162,0.0036050224562241434,0.7857266,0.4430884,0.459491,0.7729414,0.4296449,0.4397985,77.48009053143649,24.211871588782717,26.03000562980588,0.0030799000000000243,0.0035187999999999886,0.003903500000000004,99.58587599999998,55.6687257,57.72025460000001,0.0015399500000000121,0.001825300000000002,0.002127999999999991,0.012469841288991439,0.00713353407034081,0.007480811186714248,4,SITTING
-0.008330132995703125,0.0130935595546875,-0.00479993768046875,0.007900681809482338,0.02449546744228727,0.00869431422195152,0.007536633,0.04039179,0.009667838,-0.03044256,-0.06863446,-0.0254005,0.01687192176394076,0.09874806105962292,0.01262470419538075,0.012449598999999999,0.021666216000000002,0.012270017000000001,1.1797442071300002,3.1473682629999993,0.9717563890999996,0.006057376,0.009808834999999998,0.006345221,0.0008197718852770442,0.0022295119843804877,0.0009107681093617344,-0.20355172109375,-0.02655661895859375,-0.30118194609375,0.041671057214254785,0.022611586137159738,0.07889123727437876,-0.1211232,0.02111416,-0.1656214,-0.2665163,-0.08024847,-0.4476391,5.525731861706429,0.1557168432832172,12.407602172352114,0.07216509999999998,0.02326611,0.12528309999999998,26.054620299999996,3.4931771363000017,38.551289100000005,0.034094550000000015,0.00923421,0.0641561,0.006182385733140255,0.0024367422747345684,0.011630049386462381,0.9574623164062501,0.14459704687499997,0.31429129140625,0.004679266496267363,0.01000714768831616,0.00671482983178636,0.968194,0.1581309,0.3334356,0.9450406,0.1116331,0.2984177,117.34476580773953,2.6890814681378203,12.649485413565206,0.0066414000000000195,0.015993200000000013,0.006602700000000017,122.55517649999999,18.508421999999992,40.22928530000002,0.0032060999999999895,0.007526149999999995,0.0034080999999999695,0.015513978018063555,0.0031951321561513282,0.005740802609804007,4,SITTING
-0.000920636948203125,0.012408015771875,-0.00038457699140625,0.004395963888342484,0.012776171594856743,0.004676163017978678,0.007536633,0.04039179,0.009667838,-0.01741852,-0.004754596,-0.01126455,0.0025820250749450145,0.04060024525008938,0.0028178432042279085,0.004924065,0.018471715,0.006736165,0.4090314000100002,1.6592471328000005,0.4950430887000002,0.0025980525,0.007133080399999999,0.00354893795,0.0005067014567721444,0.001219884442775327,0.0005550546708734782,-0.12547719218750003,-0.015005918880703125,-0.1650439071875,0.04936905237061702,0.0106105453764922,0.08100509024859077,-0.04364947,0.02111416,-0.02695519,-0.2139845,-0.03463405,-0.3289714,2.327274123677636,0.04323344315402782,4.326568441075005,0.08928609000000001,0.015041569,0.12903199999999998,16.0610806,2.032231946869999,21.125620119999986,0.0433633,0.00791809,0.06116715,0.006169859530048874,0.001391212837883466,0.009928241105999134,0.9546895507812501,0.1558858671875,0.3136787625,0.0028409282961570238,0.005016263305833795,0.004594398647266037,0.9629479,0.1687341,0.3225754,0.9474999,0.1418323,0.3026267,116.66434678329455,3.1136725102531004,12.597180741435063,0.0035182999999999742,0.005477399999999993,0.0064649999999999985,122.2002625,19.953391000000018,40.1508816,0.0017548000000000008,0.002657050000000008,0.003234850000000039,0.015283015943427973,0.0029505030177393223,0.0054437661560901365,4,SITTING
0.0008098211644531252,-0.000680138064765625,-0.0010191764617187501,0.0028797184456594523,0.004393169475983519,0.004627155951483582,0.007435459,0.01007307,0.01095026,-0.009361701,-0.009496201,-0.01126455,0.0011454193465174414,0.0025296033064776246,0.00287350948601235,0.0038350003,0.007262642,0.006205194,0.29316558264999987,0.4925279092900001,0.4922552249000002,0.0017132461,0.0031442435,0.0031460699499999997,0.000364406457076882,0.00047673596419958047,0.0005905801465343143,-0.0533116872890625,-0.009269405699453125,-0.05615196717992187,0.034355373913707486,0.010634133622004516,0.0499425689059013,-0.006675429,0.0218543,0.005725513,-0.1224224,-0.03331451,-0.1631935,0.5148707479497526,0.02547285502869772,0.7228548617082525,0.05802426,0.012070866,0.08968218,6.8238959730000035,1.41952380227,7.229496328769996,0.029855979999999997,0.0066351503999999995,0.027841652000000005,0.0036706131676636873,0.0011329908051431051,0.005029679824119561,0.95520513671875,0.1572661015625,0.31226260781250004,0.0029622228058838844,0.0037795082527977515,0.004545849402384302,0.9618085,0.1687341,0.3236515,0.9459184,0.1479362,0.3019302,116.7904803811632,3.16760465706234,12.483660926035506,0.003849999999999909,0.00428980000000001,0.006471600000000022,122.26625749999992,20.13006099999999,39.96961379999999,0.0019546500000000577,0.0021982000000000113,0.003203750000000005,0.01529304082599832,0.002856107607953492,0.005442018753307471,4,SITTING
0.00017650587773437496,-0.001319751816015625,0.0001114388046562501,0.0032285126542616876,0.004353596784126117,0.004449698651701877,0.007435459,0.01238945,0.01095026,-0.009361701,-0.01075495,-0.01413995,0.0013381693803011364,0.002649030376272615,0.002535966297362011,0.004653002,0.00604665,0.0052412959999999995,0.32348784729,0.48379200485,0.43946503999599984,0.002244694,0.0028150305000000002,0.002631321602,0.0004095255186545865,0.0004703895257823459,0.0005464112773205533,-0.0104680370771875,-0.0009874752421875003,-0.00520330691359375,0.01643537118711886,0.006965726522486654,0.014024869540988805,0.01265449,0.0218543,0.01267073,-0.0509704,-0.02235039,-0.0365987,0.04860175696739185,0.006335546027520931,0.028642735165287432,0.025952608999999998,0.010708126,0.024313578,1.96090236712,0.7517407232000003,1.4399749636599997,0.0135191635,0.004603262,0.009116912,0.0016139319765149417,0.0008166950598126968,0.0012356047015319844,0.9557314078125,0.15579642890625,0.31257656718750004,0.0030953645612383333,0.0031395232743242725,0.004412894637453639,0.9630642,0.1664388,0.3236515,0.9459184,0.1465973,0.2983559,116.91930946061191,3.1081451348902687,12.50861875120678,0.003925399999999968,0.003988099999999994,0.005381699999999989,122.33362020000006,19.941942899999994,40.00980060000003,0.001962699999999984,0.001899999999999999,0.002834949999999975,0.015319741613605222,0.0027916031751259607,0.00542387211849462,4,SITTING
-0.000864749218359375,0.0037754687503125,-2.8141573390624993e-05,0.00286749798527443,0.0048292484950136485,0.0041831761639195535,0.007214619,0.01276661,0.01032043,-0.007352868,-0.01075495,-0.01413995,0.0011482029959943754,0.004809703079830762,0.002239968610116816,0.0038425009,0.007449265700000001,0.004115439,0.3125344741899998,0.6561727989600001,0.39863840900600006,0.00192540215,0.0037684585,0.0021986826019999997,0.00037250085772661575,0.00047452318184288875,0.0005211220470969849,0.006806985868125,0.0007701287843749998,0.013040334258515624,0.006643990619464691,0.0060223310471835675,0.011043384888651458,0.01535615,0.01537165,0.04239926,-0.01793096,-0.0145592,-0.004334266,0.011581141498929698,0.004718280907058435,0.03737685342370709,0.005410671,0.00922242,0.014260181,1.11958795812,0.6593089834,1.73186034589,0.0027692340000000006,0.0048150682,0.0055643355,0.0007818346145798041,0.0007005198810577808,0.0012014547701114852,0.95468453671875,0.16009056328125,0.3122593546875,0.002940830239725869,0.004866886028895797,0.0041190800251288545,0.9630642,0.170955,0.3223294,0.9476106,0.1465973,0.2983559,116.66319528094637,3.283542404009749,12.482927540493739,0.00395460000000003,0.007995999999999975,0.004332599999999964,122.1996207000001,20.49159209999999,39.96919739999998,0.0019369999999999665,0.004029150000000009,0.0021868999999999916,0.015289315157420016,0.0029330208006016004,0.0053933866420579,4,SITTING
0.00030507930367187506,0.0004600944093749997,-0.001489179586640625,0.0030251182146375974,0.006755672999434669,0.004936880320408172,0.006151748,0.01276661,0.00967852,-0.007352868,-0.01135129,-0.01722542,0.001183284940039818,0.005868902981226082,0.0034035767218304823,0.005214781,0.011787127,0.006103170999999999,0.33598897113,0.7788750076000001,0.49493572311000006,0.0025505757,0.0059413505,0.003049728,0.0003402596325210105,0.0005415155244170348,0.0005872764255546382,0.0104993994453125,0.0004412253429687499,0.018855828164062498,0.002625233440810826,0.005361264952779313,0.0084834961654905,0.01723944,0.0144262,0.04239926,0.003754326,-0.0145592,0.002208639,0.014992542634365433,0.0037040437372387416,0.05472153125664569,0.0037548929999999987,0.008488001,0.012322590000000001,1.343923129,0.5647719889000002,2.4135460050000006,0.0017128324999999998,0.0038843315,0.005929329999999998,0.0004686679241174523,0.0006359321187430734,0.0009699062381414514,0.9550955890624999,0.16055923593750002,0.31091025546875,0.0027922459669098157,0.00424904925058121,0.0049936293235076125,0.9603653,0.170955,0.3220539,0.9476106,0.1521729,0.2948953,116.76356875317552,3.3020573010390604,12.376335781051388,0.004313299999999964,0.006812800000000008,0.006090299999999993,122.25223539999998,20.5515822,39.796512699999994,0.002195349999999985,0.003376649999999995,0.003106850000000022,0.015248109235186883,0.0029249140270052438,0.0054251664756980724,4,SITTING
0.00021088929281250004,-0.00145394314375,-0.000949054928125,0.003113754473134411,0.005215824471622691,0.005170576616842582,0.006151748,0.008696353,0.00967852,-0.007222275,-0.01135129,-0.01722542,0.0012467124752368014,0.0037528032747565785,0.003537352679326414,0.0056722100000000004,0.008251915,0.007461635,0.34622346186000014,0.5994716028000001,0.5308979247999999,0.0029069655,0.0040946435,0.0037183676,0.00036724024782404494,0.00047872244765772025,0.0005782348344942497,0.0074051837425,0.0020460597281249998,0.009096424619140625,0.0039900912216765646,0.0060428422142752135,0.009641415176669216,0.01723944,0.01727508,0.02950626,-0.001639036,-0.01278186,-0.01015704,0.009056969499838294,0.005209894712023235,0.022489833914958728,0.005256211,0.008223612,0.015307122,0.9577159657600006,0.6680259646000004,1.38459798045,0.0030021425,0.0040820815,0.00834883655,0.0005285253972777619,0.0007064113107603143,0.0010111188110718588,0.95529626171875,0.15900642421875,0.30991242109375,0.0026812086367182784,0.0034493089437357344,0.004668477206499132,0.9616283,0.1661824,0.3220539,0.9480277,0.1521729,0.2948953,116.81256147629722,3.2377524064028687,12.296640438735027,0.00447720000000007,0.004477800000000004,0.005997100000000033,122.27792150000002,20.352822300000003,39.66878989999999,0.0022176500000000154,0.002244999999999997,0.0030977000000000365,0.01527359750127704,0.00286351856164474,0.005378190273300614,4,SITTING
-0.00088498266171875,0.003152818281875,0.000646933415390625,0.0027475625310188615,0.0035797188442820917,0.004193997124993705,0.005954129,0.01112984,0.008151128,-0.008017207,-0.006613667,-0.009676087,0.001066533654195402,0.0029125952156970926,0.0023050412452357686,0.003939278,0.0054056702,0.007283166,0.30161703948000007,0.5087608759200001,0.4656429262300001,0.0019813570500000002,0.0026045479000000003,0.00365748535,0.00036041611599852785,0.00043845610676044997,0.0004761220166591641,0.0031257466708593754,0.0019483860953125,0.0027879302339843754,0.002962283650881006,0.006424399554629953,0.007606350797629274,0.009299922,0.01727508,0.02222883,-0.004013136,-0.01278186,-0.01624187,0.0023738133348691673,0.005768847105783887,0.008400528313108438,0.004729399800000001,0.009386604,0.012247211000000001,0.45277247692999956,0.6911271643999997,0.8327203111500001,0.002350449,0.004802300000000001,0.0060180975,0.0004124493882956753,0.0008074257767565476,0.0006999447737116327,0.954340046875,0.16265946640625,0.31006222578125,0.002670026177040968,0.0036797072017578144,0.003804459978992711,0.9616283,0.1715425,0.3169765,0.9465714,0.1532105,0.3013442,116.57882292597289,3.3883702088520518,12.307591394835795,0.00335529999999995,0.004754199999999986,0.005739800000000017,122.15552600000001,20.820411700000005,39.68796490000001,0.0016626499999999877,0.002276849999999997,0.0028898000000000534,0.015246955107765326,0.002949736490997462,0.00528475803372808,4,SITTING
0.00019832224375000002,0.0005060094115624999,-0.00046212028257812496,0.0024984895294714467,0.004623807598607463,0.003945941736810138,0.005133849,0.01112984,0.008413792,-0.008017207,-0.01041536,-0.009483307,0.0008040680500792945,0.002769362205891832,0.0020203534522713978,0.003227705,0.007816598000000001,0.006504506,0.25703454464,0.49106326212000007,0.4321688082299997,0.0016718998,0.0038554079,0.0028663070000000002,0.00032041192295578915,0.0004399064730126909,0.0004853633190686706,0.0013780995674218751,-8.427481093750003e-05,0.002573990215625,0.0027436135490009486,0.005774170411465373,0.007756330136714309,0.009558672,0.01659799,0.02222883,-0.004113235,-0.01417126,-0.01624187,0.001206601436670712,0.0042685627116032954,0.008548618600938985,0.0036684833,0.007047091,0.012090616,0.31248621137,0.5850670090000002,0.8388315729999999,0.001849429,0.003448349,0.006023005,0.00038476833343898504,0.0006822511126480437,0.0007086418750468652,0.9545649375,0.16323698359375,0.30901531875,0.002495817544788681,0.003356253269499741,0.00382148963483871,0.9594862,0.1715425,0.3172375,0.9465714,0.1546606,0.300365,116.63365747322825,3.4121698878457902,12.224649088664737,0.0031308999999999365,0.004711799999999988,0.005906599999999984,122.184312,20.894333900000007,39.55396079999999,0.001538600000000001,0.0023360999999999937,0.0026750000000000107,0.01523443884615609,0.002936370625682921,0.005296574888142142,4,SITTING
-2.3607622890625025e-05,-0.00018508045546875007,0.0006435653356249999,0.0025689060562250387,0.004334822112851334,0.004683130574871458,0.008245813,0.009451004,0.01148675,-0.008455907,-0.01041536,-0.009483307,0.0008447789626327332,0.0024095920032078623,0.0028602737052817904,0.003416503,0.006559697,0.006902389,0.2622168888500001,0.46255249629999984,0.49490167050000006,0.001770603,0.00350728875,0.0033148475,0.0003375832345474855,0.000421556663955316,0.000546573493468417,-0.00035746513070312503,0.00013826099531250014,-0.002254794621875,0.0031208660332188035,0.005883382548121016,0.005978598944452239,0.009558672,0.01145848,0.0105475,-0.008030536,-0.01442998,-0.01704355,0.0012630510229718363,0.004433063207726046,0.005225951248056554,0.00403694,0.009185645,0.008157392,0.31029960586999994,0.6465338858000002,0.6695509614000004,0.0019550684999999996,0.004635427,0.0037695569999999998,0.00039056013396943307,0.0006356490437771936,0.000669233492110088,0.9543181421875001,0.163290328125,0.3099713609375,0.002475715774326987,0.0034622791356890524,0.00441816378456301,0.9625569,0.1716219,0.3199662,0.9462223,0.1546606,0.300365,116.57334344662999,3.4144919854059,12.30102589090216,0.0030700999999999645,0.005095100000000019,0.0064494000000000495,122.15272220000003,20.90116200000001,39.676334200000014,0.0015393500000000504,0.002487749999999983,0.002947850000000002,0.015242356793831126,0.0029354431222793683,0.005371937159243502,4,SITTING
-0.0007491433842968751,0.0020931053210937497,0.0009488928198437498,0.002744925715934563,0.0037665168118231696,0.005087457396442904,0.008245813,0.009451004,0.01148675,-0.008455907,-0.007135354,-0.01154638,0.0010362666235180346,0.0023766705637040058,0.0034281754040540974,0.0033212149999999998,0.0055922461,0.007160639,0.28980445631,0.4682218349000002,0.5400542761399998,0.0016265182499999998,0.00279612305,0.00377273835,0.0003541905880624844,0.0003811191936055082,0.0005658763635817935,-0.0010564633002343748,-0.00055644872109375,-0.0006369508757812499,0.0029648114707162628,0.005252161915480723,0.007471080283270216,0.005340396,0.00969577,0.01912886,-0.008030536,-0.01442998,-0.01704355,0.0012679963854890033,0.0035705395156010243,0.007196511618205117,0.0034324849,0.008467905,0.010831285,0.3139848553700001,0.5667448818999999,0.7950309242999998,0.0017694214500000001,0.00371334,0.004703654,0.00039550739739933514,0.0006160999366846777,0.0007519528461620156,0.95322853984375,0.16569216874999998,0.31149775859375,0.0026310475619079673,0.0031149128256449136,0.0045483409291796895,0.9625569,0.1736632,0.3213905,0.9462223,0.1563018,0.3007139,116.30740116274183,3.5153404757746993,12.422597249809685,0.003376600000000063,0.003650399999999998,0.007465600000000017,122.01325309999996,21.2085976,39.87171310000002,0.001587000000000005,0.001923649999999999,0.0037623499999999976,0.015225098995011834,0.0029079637193481726,0.005400313618130398,4,SITTING
0.00035600353703125,-0.0017745468781250001,-0.001628177418515625,0.0027565775965170173,0.005010764944672162,0.004195682048089049,0.006839154,0.008653093,0.009063498,-0.006360482,-0.01207169,-0.01154638,0.0009888586961917822,0.0036168680900375795,0.0025926028230170775,0.003713755,0.007182444999999999,0.0051647366,0.28396243718,0.5853744411999998,0.4608883660500003,0.0019628,0.0032108304500000004,0.0027068195000000002,0.0003319328596823992,0.000425897478067823,0.000499235341912497,-0.000341585719375,-0.0008880294301562501,0.0027149862359375,0.0031918568936457584,0.0057770472587328646,0.007540733574692343,0.007084152,0.0199989,0.01912886,-0.00622553,-0.01281144,-0.01654883,0.0013189927978489457,0.0043728475262024375,0.00822192807754527,0.004351374,0.007234777,0.010779421999999999,0.3356509358599999,0.60283271974,0.8506165226,0.0022067034999999997,0.003655188,0.0054029975,0.00039251923750290707,0.0006986043752935171,0.0007551238370722803,0.9536338359375001,0.16368083671875,0.30961463984374993,0.002552531514427586,0.004097829011803672,0.004239916236962631,0.9608064,0.1736632,0.3213905,0.9476951,0.1550881,0.3007139,116.40627308313637,3.4314506894796897,12.272537868194753,0.003630199999999917,0.0061067999999999956,0.005825399999999981,122.06513099999997,20.951147099999996,39.63067389999999,0.0017505000000000437,0.003088599999999997,0.003064199999999989,0.015217006634419876,0.0029289660609586724,0.005322094885110476,4,SITTING
0.00031147680328125004,-0.0010202231869531253,0.000799033189765625,0.0027949956100041754,0.005305743372467858,0.004555703934638988,0.006839154,0.01105786,0.01210706,-0.01017566,-0.01207169,-0.009880245,0.0010123543371423898,0.0037365463149674747,0.00273829022443932,0.003722162,0.008413619,0.006337054,0.2868521153599998,0.5887547195299999,0.4864455361100001,0.0019979704999999997,0.004152836,0.0032942695000000004,0.0004009860306627239,0.0004935874817987242,0.0004816227551058888,-0.0005536105792734375,0.0008105339128125,-0.00242016331015625,0.0033392392753475316,0.007232636020555248,0.007669216278116691,0.007084152,0.0199989,0.01479715,-0.0124939,-0.0278183,-0.02014623,0.0014664964622728921,0.006779902595795506,0.008278280802349623,0.0043420379999999995,0.010713563,0.00985201,0.33493047219299993,0.7687066548400003,0.8545800119000002,0.002172353,0.005641131000000001,0.0044387772499999995,0.0004559638149525312,0.0007950496560793763,0.0007442774380648418,0.95420226171875,0.16252903828124998,0.31060469765625,0.0025621941204061636,0.0034077687097397655,0.004042974216686447,0.9608064,0.1724663,0.3209431,0.9444618,0.1550881,0.3009798,116.54509070180973,3.3826945500425105,12.350927852370843,0.003660099999999944,0.004968,0.005686999999999998,122.13788950000001,20.80371690000001,39.7574013,0.0017455999999999583,0.002414650000000018,0.002787099999999987,0.015275460972536152,0.0029090846969232493,0.005307606052020269,4,SITTING
0.02594527010703125,0.00108246310390625,-0.0032570741787499996,0.028982798442480563,0.019554375098040856,0.02240558423788844,0.1105015,0.1075024,0.02309726,-0.01182332,-0.04852346,-0.07369398,0.19368443474998562,0.04909379991631344,0.06561519836761534,0.0479524368,0.010347701,0.015268852,3.5995517623,1.453531040099999,1.8530998711199984,0.021312595,0.004044624,0.007325628999999999,0.002824148974586237,0.002268653897014462,0.0018565892859780506,0.0610835223671875,-0.0260312073203125,0.202239813203125,0.04060437384733852,0.05263035706856149,0.09291144381657941,0.1866745,0.1404171,0.4137371,-0.05807814,-0.2617657,0.06730612,0.6886287206805923,0.44129001468382334,6.340285239874085,0.031076010000000008,0.027151927,0.1727785,8.401740477000004,4.306538522199998,25.886696089999987,0.014538554999999998,0.0115106942,0.0870993,0.00436179732936904,0.006245792583156344,0.010637446252011615,0.18128593203124999,0.7928201828125,0.57080637421875,0.015322322027773798,0.0187923096335314,0.010948664780709608,0.2107747,0.8956578,0.5891572,0.121506,0.7400756,0.5328179,4.23671842620951,80.50137512655469,41.72029313398222,0.01024029999999998,0.00878369999999995,0.006884299999999954,23.20459930000001,101.48098340000001,73.0632159,0.004493299999999992,0.0031316000000000677,0.003885750000000021,0.004611957425025882,0.014585075756131403,0.010057384012582162,6,LAYING
0.00016433907390624993,-0.0017953079390625,0.0037933239978125,0.006305499551982457,0.003238091092850262,0.006218458539692028,0.02058656,0.006795563,0.02309726,-0.01182332,-0.009169491,-0.01210736,0.005092650487201704,0.001754670658772101,0.00679149229596786,0.006734118,0.0046743265,0.0080786665,0.5779611784600003,0.37446499199999983,0.6811237001200002,0.0034628265,0.0023371632500000005,0.0037602154999999996,0.0005836968465408698,0.0004190545966938794,0.0007682769328467249,0.0380897633203125,-0.002010827359609375,0.07578559215625,0.018023757959942415,0.007554976512440436,0.05414412868738244,0.07883606,0.01277749,0.1884581,0.007927525,-0.02369228,-0.001689338,0.22728779786188935,0.007823500387031076,1.110405459173029,0.032126,0.010337919,0.08678558,4.875489705,0.7582788964299995,9.707040345999998,0.01497136,0.004130729200000001,0.0428546,0.0020414054162553904,0.000791522617703856,0.00591319644829077,0.18725597187499998,0.7891893249999999,0.5732804453125,0.002869883118671209,0.002798037862223727,0.00404114901739088,0.1938947,0.7985047,0.5861577,0.1787438,0.781358,0.5624127,4.489348509691601,79.72193532285874,42.06935038247413,0.003295400000000004,0.0037925000000000875,0.004849499999999951,23.96876439999999,101.0162336,73.37989699999999,0.001647700000000002,0.001722599999999963,0.0023315500000000156,0.003285200831176274,0.012675256380392515,0.009463345278345789,6,LAYING
-0.00021030541984375,-0.00038310208453125,0.00022674041762500008,0.0032918436610354764,0.002344185305277675,0.0037995599104854415,0.00718548,0.006795563,0.0116366,-0.01006666,-0.007406992,-0.01210736,0.001392699271464334,0.0007221724099394527,0.0018544725414851703,0.004231594,0.0027988114,0.00444578,0.32684035526,0.2341522527799999,0.36640410325600015,0.002079435,0.00140807605,0.002225846,0.0003798134684932303,0.00030149740598045316,0.00047547051284071485,0.01469722799734375,-0.0004656852644531251,0.006290100703828126,0.01025309905027038,0.004936345822868777,0.027733752313600812,0.03736635,0.01277749,0.06944356,-0.00313065,-0.01357699,-0.03255861,0.041105222520391706,0.0031467997246057986,0.10351697718482655,0.015295306000000002,0.0067358439999999995,0.04715122,1.8906736888599998,0.49813001680999996,3.038868920089999,0.007370898,0.0033229310000000003,0.02063856,0.0011966729351171215,0.0005236140081483046,0.00254957998367628,0.18785935625,0.7884116765625,0.57445795546875,0.002422874688249671,0.002402087250688331,0.0038063768824461016,0.1939644,0.7963858,0.5861577,0.1813707,0.7810431,0.5624127,4.518017030709682,79.56463894569623,42.242103181607376,0.0030644000000000227,0.002878700000000012,0.004317400000000027,24.045997599999993,100.91669459999994,73.53061829999997,0.0013934499999999905,0.0014493000000000422,0.0021773500000000223,0.0032430201582111587,0.012626302737524079,0.009457305892354977,6,LAYING
0.000411954247890625,-7.215608351562506e-05,-0.00038745334432812505,0.002663758217202885,0.0024394924252605795,0.003248902595698957,0.006779556,0.005496019,0.008267086,-0.005825918,-0.00735777,-0.01046782,0.0009299602101850912,0.0007624102135413832,0.00137030248580742,0.0037983569999999996,0.0031153279999999997,0.004411456,0.28224160146999994,0.24572581125,0.32657885818599997,0.0018503381,0.001623475,0.002239956,0.00031850131365037814,0.0003112488931646385,0.000436180777038793,0.002800184973453125,-0.0008102251571875,-0.019162037233671877,0.005005294108298493,0.00576158791069209,0.007477927268800283,0.0148696,0.01326154,1.542409e-05,-0.006352334,-0.01357699,-0.03255861,0.004210432639503396,0.004333102087420511,0.05415719259930803,0.00807074,0.007784968,0.00926001,0.5433972228020001,0.6082594656800001,2.45277161409,0.002968809,0.0037269390000000003,0.004421284999999999,0.0005129628416881572,0.000497548232856279,0.0010100623714790183,0.1879163921875,0.7881079390625001,0.5739984375,0.0025828942292455996,0.002359016907634487,0.0032738238483938776,0.1939644,0.7932535,0.5827673,0.1813707,0.7810431,0.5639359,4.520862949806821,79.5033201374863,42.17407029440406,0.003669400000000017,0.003077400000000008,0.004292300000000027,24.053298200000025,100.87781619999998,73.4718,0.0017950500000000064,0.0015963999999999978,0.0021556000000000353,0.00323795716405656,0.01261673048900841,0.009402487845999978,6,LAYING
-0.00021613294820312497,0.00016734800878125003,0.00010720455203125004,0.0024566042082849802,0.0021936427247929353,0.0038342215473951323,0.00551393,0.005496019,0.01219017,-0.007825983,-0.005487539,-0.01046782,0.0007784470639951936,0.0006195294412902428,0.0018832317043821236,0.003269218,0.002674445,0.005037858,0.24740889290999998,0.219751911256,0.3831573298199999,0.00163773955,0.0013990765000000001,0.002532229,0.0002925402920940439,0.000283537984466259,0.0004824101697082517,-0.001934301066078125,0.00282376059765625,-0.017874464890625,0.0024335318330655953,0.0054434229980140384,0.004962523187962636,0.003488633,0.01326154,-0.007097394,-0.006674747,-0.01196211,-0.03113814,0.0012369405179871449,0.00481337316456757,0.04404776083420838,0.0036818793000000004,0.0075356468,0.006516900000000001,0.33015461134199997,0.6620968780999998,2.287931506,0.0018493018499999999,0.00372627615,0.0032489550000000004,0.0003494411079468739,0.000560883329928744,0.000819360384998583,0.187865375,0.7882879625,0.57381433359375,0.002446083354632975,0.0021397724861536103,0.0036607208416742547,0.1935387,0.7932501,0.5851367,0.1803184,0.7826088,0.5639359,4.51832095330156,79.53951877743283,42.14736516028416,0.003271099999999999,0.002569199999999938,0.004553799999999941,24.046768000000004,100.9008592,73.44823470000001,0.0016866000000000103,0.001303799999999966,0.0022880999999999596,0.0032238206843864274,0.012593849152022874,0.009432216057789383,6,LAYING
0.00011284470234375002,-4.274254968749991e-06,9.708819914062511e-05,0.0030544551669752533,0.002006007719579305,0.004445104743095736,0.007978294,0.004585569,0.0152953,-0.007825983,-0.007361086,-0.009400319,0.0011958310776203358,0.0005150829107542146,0.0025303529338245863,0.003696054,0.00253412,0.005665837999999999,0.30325263963999993,0.19964831935599997,0.44096344879000027,0.00190151163,0.0013140132999999998,0.0028980089,0.0003459436314785451,0.00027000427048983323,0.000546317988931029,-0.002842671128125,0.00038436764296874995,-0.01360615003046875,0.002459349807127204,0.005901648923238049,0.004857863392827404,0.003354906,0.01325396,0.005884907,-0.00976919,-0.01090945,-0.02301264,0.0018085351189109863,0.0044770814077591285,0.026716947890559655,0.003456311,0.009550968,0.00569708,0.4109294976,0.6427541614999995,1.7692288159,0.0017768435000000003,0.004812240000000001,0.002669340000000001,0.00036302223149959245,0.0005574752699947231,0.0008231696498055871,0.18821634921875002,0.788370028125,0.57372632578125,0.0030432210586091002,0.0019828824903698242,0.004290264044016653,0.1960576,0.7928625,0.5893528,0.1803184,0.7810343,0.5648088,4.53563587937869,79.55599783280431,42.135078817282604,0.0035712999999999995,0.0024273999999999685,0.0053843000000000085,24.091692699999992,100.9113636,73.43696970000002,0.0018502999999999992,0.0013014999999999555,0.002616699999999972,0.003284126682245364,0.012584333411687503,0.009497652178863763,6,LAYING
8.877444531250001e-05,-0.000348809270078125,-0.00021710309874999997,0.003217149528251575,0.0025992618548237776,0.003930204710376121,0.007978294,0.004822586,0.0152953,-0.008287412,-0.008165548,-0.009400319,0.0013258152946265434,0.0008803622523948002,0.0019831862810815366,0.00404286,0.003812413,0.004597245,0.32838750879999995,0.27067411831,0.38705262535999996,0.0019915740000000003,0.0019105665,0.0024919770000000003,0.0003657205989970277,0.0003352185612052528,0.0005124431600924669,-0.0021879536083906246,0.00131674184140625,-0.0049507337321093746,0.0025839026946636403,0.006231602262403478,0.008860973823741701,0.006867838,0.01812942,0.007038395,-0.00976919,-0.01090945,-0.02025818,0.001467352848378827,0.005192534506713865,0.013187407563684004,0.0030953805,0.008934955,0.016335047000000002,0.35362754501399996,0.6844286227,1.0611228116899998,0.001536341,0.005014374,0.008053922500000001,0.00035291817541615233,0.0006330914288074218,0.0007772859732656748,0.18825134453125,0.78808543203125,0.5737071078125,0.003186534352474698,0.0025502773369997706,0.0038619250566955185,0.1960576,0.7933739,0.5893528,0.1795794,0.7804667,0.5648088,4.5374365080323695,79.49889946808032,42.13180928252506,0.004006200000000015,0.0037753999999999843,0.004824599999999957,24.09617210000001,100.87493529999998,73.43450980000001,0.0019596000000000197,0.001805649999999992,0.0024573999999999985,0.003301524762349261,0.012638791983469367,0.009467609470479147,6,LAYING
0.000542123979375,-0.0006598927315625001,0.00027055347109375004,0.0025538599160078827,0.002736049352640599,0.00447199486239469,0.007659421,0.00651313,0.01880743,-0.008287412,-0.01082866,-0.009938709,0.0008724606565894621,0.001013942333088519,0.0025692079654406888,0.0027365134,0.00347087,0.005269879,0.2543322912400002,0.27634723088,0.4254204624800001,0.0014048732,0.0017508010999999998,0.0026349395,0.0003223587304929767,0.00033621520146545115,0.0005398467615089248,-0.001216268134015625,0.0007381986734375001,-0.0005624465305468751,0.0024099580517787287,0.006585441494124336,0.004690302188991993,0.006867838,0.01812942,0.007038395,-0.006931465,-0.01176205,-0.0164,0.0009327623660998366,0.005620861050111931,0.0028563559326447744,0.00291356474,0.009821279,0.007511821,0.28079976157399994,0.7320569212000007,0.5194044478900001,0.00147965355,0.0048994235,0.0039868835,0.0003278446178101264,0.0006134951824681113,0.0005046672520585967,0.18875645859374998,0.787172728125,0.57457033984375,0.0025298457662513534,0.0026457751278553005,0.004325849065092232,0.1956624,0.7933739,0.593163,0.1795794,0.7771979,0.565289,4.561331299898249,79.31493171581214,42.259172914981946,0.0026310999999999973,0.0028996999999999495,0.005097299999999971,24.160826699999994,100.75810919999999,73.54500350000005,0.0012682499999999847,0.001493000000000022,0.002616200000000013,0.0032599018348760203,0.012621532684796023,0.009502503782880952,6,LAYING
0.000876250824453125,-0.000780642940625,0.001000732132015625,0.0026146424701392226,0.003055070429578997,0.004768788715803638,0.008328051,0.006906961,0.01880743,-0.009166207,-0.01082866,-0.009938709,0.0009733338565133465,0.0012726859174957627,0.003039079758851155,0.0029006242,0.003615612,0.006174456,0.26092144627,0.30172663744000006,0.48043655816200015,0.0014371791999999999,0.00180693585,0.0031666533999999994,0.0003396696365665895,0.00039006032266643346,0.0005705879735227702,-6.42058228125e-05,-0.0006471765640624999,6.153121554687495e-05,0.0023472234139428195,0.005232617540909555,0.005186701506614046,0.006451388,0.008965364,0.01352649,-0.004951969,-0.01176205,-0.0164,0.0007057382582584848,0.0035582878508167814,0.003443924301977486,0.003210699,0.008699938,0.007623187,0.23734764970000002,0.5847541171399997,0.54792627623,0.0014635820000000002,0.004143563115,0.0038818605,0.0002724003880920814,0.000494573151907187,0.0005064263014876975,0.18976487109375,0.78622702109375,0.5757263906250001,0.0025797385180040635,0.002926621408901297,0.0045927035753811005,0.1977101,0.7934405,0.593163,0.1799213,0.7771979,0.565289,4.610222253062251,79.12467120778533,42.429692132892335,0.002796099999999996,0.0036015999999999826,0.005611400000000044,24.2899035,100.63705869999998,73.692978,0.0013541500000000123,0.0016089499999999424,0.0028236999999999846,0.0032831809257182305,0.012659097649196783,0.009539770390046626,6,LAYING
-0.00017441823031250005,-3.744695218749997e-05,0.0008819004462343748,0.0030997646679985905,0.0032529028639276367,0.004234480993153439,0.0116533,0.006906961,0.0127036,-0.009166207,-0.008813887,-0.009940156,0.0012337872276528329,0.0013545957524962247,0.0023946979428411067,0.003314764,0.004248738,0.0065155479999999995,0.2939567585400001,0.33163687492,0.44430427080200025,0.0017015635,0.00231506399,0.0031226691,0.00039600334317894156,0.00039564713996822695,0.0005419592253296159,0.0002675760253125001,-0.00085653365703125,0.0008234217108593749,0.0020391037907632682,0.005095241900028043,0.004909610750639389,0.006576776,0.008965364,0.01352649,-0.004485599,-0.01038675,-0.0116685,0.0005413812734498773,0.003416977910454875,0.0031721345326986795,0.00266144,0.008549424,0.007166459,0.20118990804000003,0.5735962670400003,0.52410206543,0.001224003085,0.00413079455,0.0032569755000000002,0.0002536478850950834,0.00048038740355227095,0.000554762043387746,0.18959407421875002,0.78634419765625,0.5764482390625001,0.003079230359253907,0.003029410368796645,0.003924927539284051,0.2015769,0.7934405,0.5882764,0.1799213,0.7777475,0.5653633,4.602290513724189,79.14833593789878,42.53542110392907,0.003347899999999987,0.004054899999999972,0.004935699999999987,24.2680415,100.65205730000001,73.78537460000003,0.0017286999999999997,0.0019884500000000305,0.00256354999999997,0.003353976385860184,0.01267071125826168,0.009511691285868245,6,LAYING
-0.0003487243788281249,0.0005181373835937501,-0.00017229662226562502,0.0028659358691009874,0.0024843327643978464,0.004088742263818766,0.0116533,0.006320018,0.0127036,-0.008486322,-0.006137157,-0.009940156,0.0010669052285681524,0.0008243680809648668,0.00214367992652569,0.003732245,0.003375739,0.005260198000000001,0.2870421383700001,0.2507271491000001,0.4176904671499997,0.001861298,0.0016143605000000002,0.0026622475,0.00034631570918472595,0.00031185488282259305,0.0005288701804165975,0.00012063056312500002,-0.00017068815546875,0.000549703445,0.0026879206962005875,0.005674187966747957,0.004540008603303958,0.007727729,0.01182514,0.01030801,-0.009420592,-0.01038675,-0.0116685,0.0009266520834333828,0.004124869571635793,0.0026769730554264096,0.003338915,0.009992853999999999,0.005985303,0.2668653547,0.6421399266999999,0.48278030396,0.00155951235,0.004701768,0.002916264,0.00034740265393973235,0.0005659220166520011,0.0004849203903887508,0.18932324296875,0.7867558640625,0.57621693671875,0.002833772124877334,0.0023069382566420125,0.003934111659750665,0.2015769,0.7919008,0.5882764,0.1813777,0.7803047,0.5653633,4.58896903586049,79.23073428490888,42.50130373069969,0.003774600000000017,0.0031553999999999194,0.005142199999999986,24.23337510000001,100.70475059999995,73.75576790000002,0.001930299999999996,0.0013966499999999993,0.0025212000000000012,0.0032918445660304217,0.01258613628425371,0.009517193134564556,6,LAYING
5.243606835937507e-05,-0.00028633162484375006,0.000860254075703125,0.0026612334566261087,0.0024127447796934726,0.003929707455336628,0.007373748,0.005628516,0.01032728,-0.006082972,-0.006137157,-0.008623887,0.0009068688706471859,0.0007556253659294422,0.00207137763318939,0.003913739,0.002855008,0.005852032,0.27526795985000013,0.2420703486199999,0.42163778648999983,0.001786911675,0.001491919835,0.003054254,0.000330204094898079,0.0003065828552645457,0.0005168916883022522,-0.0005309450265468751,-0.0007146639103906251,-0.0004825680190625,0.003048857320274517,0.005881652237937123,0.0048947478390276,0.007727729,0.01182514,0.01030801,-0.009420592,-0.01400701,-0.01329425,0.0012259114983176143,0.004493385926764236,0.0030965028224879706,0.004634172,0.009232594,0.007266344,0.32533526960200004,0.6339079413300003,0.5160377373599999,0.0022634405,0.0045491795,0.0033866555000000003,0.000395141404271793,0.0006146014631654632,0.0005022145820089601,0.189351715625,0.786427321875,0.5772977359374999,0.0026359250196929646,0.002324330434297742,0.0038593428950432765,0.1967934,0.7915766,0.5862649,0.1833779,0.7808584,0.5682896,4.59021059978756,79.16458689324196,42.660809017106565,0.003850300000000001,0.0026476999999999196,0.005526100000000089,24.237019599999993,100.66269720000001,73.89411020000003,0.0019351499999999966,0.0013259000000000465,0.002852599999999983,0.003284272166969577,0.012586530050959211,0.009522341018716426,6,LAYING
0.0003699950624218751,-0.00026582259743750006,4.179742265624989e-05,0.0029545452771974623,0.0024397416352911687,0.004011777819327244,0.007813555,0.005116902,0.009048247,-0.006361033,-0.005528024,-0.008044082,0.0011348779700769793,0.0007709441152360504,0.002060301861911905,0.004027231,0.003084242,0.00571474,0.30864107379000005,0.249762948048,0.41930668609999977,0.0020389049999999997,0.001533249,0.00285737,0.0003849362372029508,0.00030449716237713326,0.0004912325664470498,-0.00028201489217187503,-0.0006363455299218749,-7.991967429687514e-05,0.0025197154536282487,0.006335554709706932,0.005390448093481006,0.006024775,0.01469792,0.009544378,-0.005970226,-0.01400701,-0.01329425,0.0008228477909324449,0.005189656206482077,0.003720104678765147,0.00309406,0.009163458,0.00868027,0.25516834940199995,0.6606645622300001,0.5821957211100001,0.0015288647,0.0044672459,0.0042440675,0.00028632811024596587,0.0006142663715547642,0.0005122278184777199,0.18969334375,0.786287065625,0.57719100234375,0.0029327474345672757,0.0023643048915867183,0.003674464513101382,0.1972449,0.7915022,0.5862649,0.1830851,0.7808584,0.5699329,4.606997205833044,79.13637625686957,42.64485822413324,0.004183199999999998,0.0030964999999999465,0.004695600000000022,24.280748000000017,100.64474440000002,73.8804483,0.002092499999999997,0.001526999999999945,0.002308549999999965,0.003341482512170088,0.012579086191583629,0.009489241399810954,6,LAYING
-0.05328415757242187,0.005297998924999998,0.026418740717890625,0.11102895906646554,0.05050304437523062,0.05654709104655224,0.03975435,0.1299424,0.2255105,-0.4030236,-0.05793101,-0.02593905,1.9413287935469519,0.33006416432330443,0.4986269909691137,0.14072973,0.06751564,0.026837673,10.071838353270001,5.148268871599999,3.852682403090001,0.03244736163499999,0.02312776,0.0074483635,0.011064589319071564,0.004104844110829733,0.006110509645632327,0.2369262875,0.05193727443828125,0.28560065859375006,0.09956467823330895,0.06606230752610659,0.06378965448377058,0.5832548,0.2258509,0.4800637,0.1048331,-0.2151532,0.1679185,8.45404043011008,0.903898745824157,10.961517594667848,0.08254639999999999,0.06288432,0.08052190000000001,30.326564800000003,8.549449071900002,36.55688429999999,0.03675015000000001,0.02322009,0.03609139999999997,0.011100842678422334,0.008020448571440499,0.010056368234446382,0.314069896875,0.78085108203125,0.51710736328125,0.022171023081994527,0.023399523505476538,0.02680627511136872,0.3849741,0.8460121,0.5863513,0.2290288,0.6785252,0.4305626,12.688826161609656,78.1153216012361,34.319180997764214,0.013014599999999987,0.020323699999999945,0.0286902,40.2009468,99.94893850000003,66.18974250000001,0.006254599999999971,0.0063152499999999945,0.009127749999999935,0.007595004730414353,0.01499506142189724,0.010710021933233702,6,LAYING
0.012907400220546875,-0.01013087643171875,0.00067701641953125,0.014812501821879025,0.017372110304168485,0.005760291096660966,0.03975435,0.01723234,0.02505849,-0.01249907,-0.04486674,-0.01935343,0.0494094324065975,0.05176638383295375,0.004305831008075072,0.029802665,0.029074505,0.006421537,1.948258098970001,1.9488688957399996,0.5494301141000001,0.012974162,0.0117350365,0.00328537,0.0011449900527522872,0.001184634394769013,0.0008365959427535255,0.150861648203125,0.025084133765859374,0.18879537125,0.0491213019930813,0.017960509146145043,0.06901871448504288,0.2451001,0.09773735,0.3235876,0.05358959,-0.01464139,0.07833281,3.222033818631546,0.12182958791325262,5.172131219787922,0.0909233,0.019775720000000004,0.10488830000000002,19.310290969999986,3.3115045351700014,24.165807520000012,0.046328249999999994,0.009705120000000001,0.0515371,0.006097911479753892,0.002368962836637882,0.008740922478190204,0.31486435312499994,0.7756247859375001,0.52679490703125,0.004916936191114366,0.005137897082734429,0.006027512063164303,0.3261632,0.7956504,0.5543377,0.296697,0.7647619,0.5082819,12.692958352682517,77.00738643801931,35.526298236894085,0.005579000000000001,0.005765499999999979,0.006075599999999959,40.302637200000014,99.27997260000001,67.42974809999998,0.002634300000000006,0.0025489499999999943,0.0030009500000000022,0.005550615588818103,0.012741616367544813,0.009084512437596485,6,LAYING
-0.09150014925390626,-0.053612741214531245,0.07972522603984375,0.12014184533790168,0.1395956062494744,0.12494349350641597,0.0171506,0.2114572,0.4170045,-0.3950032,-0.4797451,-0.1530799,2.919211560279476,2.8622411910009085,2.8117744942965746,0.20088105139999998,0.15746433899999998,0.2016058801,12.116892497699999,11.70158493874,11.322690060300001,0.016861133,0.009808234999999998,0.013939413,0.009450742371142346,0.012500666895437874,0.01083626896225641,-0.032698813125000004,0.07333687483617188,0.019882428601562495,0.5023259170908451,0.16357636384129676,0.2118997268230521,0.4565978,0.6367203,0.1812374,-2.260283,-0.1522263,-0.6895735,32.435269038200595,4.1133470743394085,5.797991064931886,0.10139335999999999,0.0857988436,0.17559592999999998,37.528334919999985,13.122157428170004,20.587932817000006,0.04956853,0.0223936155,0.054211949999999995,0.04241243578726556,0.016196513480364383,0.01709079810889933,0.2147198672421875,0.7190318890624999,0.6121691015625,0.13299215649610605,0.1386305871587143,0.13500189999590226,0.3326648,0.986462,0.9512482,-0.08615691,0.2995589,0.3761371,8.165316489982388,68.63683803964895,50.30099480452379,0.25716648999999997,0.1651478999999999,0.2581418,28.231973457,92.03608179999999,78.35764500000003,0.011726899999999957,0.006792049999999994,0.013795399999999958,0.012592853100909095,0.022973718606570315,0.020001908038321758,6,LAYING
-0.10647745084765625,-0.041838417067187494,0.08468021386171876,0.11878585186686824,0.15015968933997223,0.13576533030791105,0.04850597,0.2114572,0.4170045,-0.3950032,-0.4797451,-0.1530799,3.2572833462723345,3.1101933370067085,3.277179332260175,0.20648726499999998,0.21136343999999999,0.23322913,15.292617303499993,14.653396695400007,15.926599939700008,0.10316995375000002,0.0760575865,0.097134205,0.008453540420022446,0.012634926537571298,0.01010133144086584,-0.008546080046875001,0.017939613664062506,-0.0121801157265625,0.5318469459243491,0.19659949543725577,0.1970582255009571,0.5884191,0.6367203,0.1812374,-2.260283,-0.2658802,-0.6895735,36.21557879977283,4.988568492108716,4.989478330457416,0.4434224,0.18487171,0.11530080000000001,44.94737881400003,18.30054289500001,16.486731128999995,0.18599800000000002,0.07854621,0.044871980000000006,0.04365099025568732,0.016777075991671248,0.016613192864883684,0.0964868434140625,0.6779535171875,0.70537521953125,0.08891838743052712,0.12942442594507864,0.10771114412992516,0.3326648,0.986462,0.9512482,-0.08615691,0.2995589,0.3761371,2.203672393632657,60.975571647758734,65.17195403501273,0.05099897999999999,0.13823419999999997,0.15204499999999999,13.098146407,86.7780502,90.2880281,0.02661560999999999,0.07089830000000008,0.07024934999999999,0.009452419543192852,0.02217923707689514,0.019583003766906408,6,LAYING
0.01430050457421875,0.0453949099765625,-0.030562400060156248,0.06487600599842079,0.04567223133153568,0.07370317954099971,0.08021386,0.1555906,0.1808159,-0.1729399,-0.07270279,-0.1248207,0.5649152749292011,0.5307712725224352,0.814876028401904,0.0580535535,0.05229717,0.0807221923,7.219295589500001,7.2887542829999985,9.465393827699998,0.024091844999999997,0.023310789999999998,0.026750794999999994,0.005657077910745355,0.004457837195513898,0.00653844064683232,0.11325044215859376,-0.07625541556328125,0.05735823911484375,0.16825601620122993,0.05927507671009546,0.03790196520257081,0.5884191,0.01924085,0.1725727,-0.3326153,-0.2658802,-0.04469966,5.265375953539266,1.1940381595797012,0.6049953997532773,0.1691214496,0.06546073999999999,0.048043670000000004,19.938457908900006,9.867730675700006,7.602734698699998,0.104030355,0.03770763,0.022345855,0.017223886457121987,0.007244879167389626,0.005459588668666403,0.10145476476562501,0.71781025859375,0.68239265546875,0.027445068016985312,0.036007688073589596,0.043698006871525356,0.1446702,0.795099,0.7759982,0.04422265,0.6390715,0.6151783,1.4139265346694725,66.11815948068238,59.848864261406156,0.045908640000000014,0.05596319999999999,0.08162000000000003,12.986209890000001,91.87971309999999,87.34625989999994,0.020210089999999986,0.028094500000000022,0.033675399999999966,0.004047509264027336,0.01448508015118531,0.014653115401514157,6,LAYING
0.005411150796874997,0.06335399858593752,-0.04526436920625,0.08038093554787767,0.06254737856043173,0.05755999204649739,0.155825,0.2475552,0.1622841,-0.1888578,-0.1558541,-0.1647514,0.830768045119819,1.0145156738059422,0.6863380229161671,0.10675964,0.05116261999999999,0.054080619999999996,8.845327679999997,9.569363969000003,8.406825851599999,0.027170145,0.025271240000000004,0.026690924999999997,0.007017156826862719,0.007433375378019456,0.006231880274164365,-0.009551553255468744,0.007581922117968749,-0.06130236018046875,0.32040426402988925,0.1674565688282593,0.18311831877719043,0.4450682,0.3765871,0.1555753,-2.168331,-0.4260088,-0.5777859,13.152015946000262,3.5966960623022697,4.7731581485415235,0.19457022999999998,0.22169555000000002,0.139976,23.0356787559,16.2332493089,15.2787250865,0.10338014499999999,0.07006285500000001,0.06445813450000001,0.04294626228107563,0.017352350286096788,0.017024140057595873,0.10109976145312499,0.7776281593750001,0.63917340078125,0.06223272879990717,0.07660679994718611,0.05159509583713555,0.2801273,1.017936,0.7816329,-0.05615842,0.5841235,0.4821509,1.8040415103694811,78.15349197454063,52.6342003431311,0.05428247,0.064724,0.05206749999999993,13.639766046,99.53640440000004,81.81419530000004,0.023493110000000005,0.026211949999999984,0.024724100000000027,0.007289520952927967,0.02039097249837503,0.01456742683787314,6,LAYING
-0.13164047967187498,-0.13164379227343748,0.0942144230515625,0.13106230205851233,0.2624997490461974,0.18292177990951347,0.155825,0.2475552,0.6700373,-0.5547746,-0.9607107,-0.2894206,4.416837492367112,11.03823440556142,5.419102089754019,0.1440485,0.31878769,0.25943096,18.950920499999995,27.122577039000003,19.858758702600003,0.06934770000000001,0.16187972499999997,0.12671867,0.013734812998124284,0.02526002344340813,0.01680548018951911,-0.2167378958578125,0.03416011636093749,-0.08182480648835938,0.7985769265811145,0.25345369295129155,0.20865894709577545,0.8854364,0.9701211,0.4006077,-3.536968,-0.5515048,-0.5777859,87.64165416558215,8.371928066616372,6.429933460476812,0.4097443,0.3281673,0.23645274,57.209336801799985,25.4745687482,19.342446022489998,0.21571809999999997,0.173363975,0.069798795,0.07070504862559655,0.028933300341788794,0.021863325044794272,-0.050865596984375,0.6019457615625001,0.74021629609375,0.15687728213768398,0.2677257113939594,0.18624853135599462,0.2801273,1.017936,1.281363,-0.4665558,-0.1795554,0.3253131,3.4813171977578716,55.55401681977085,74.57391109568194,0.25503273000000004,0.3980041,0.3074557,17.258733246,78.14272302000002,94.74768590000002,0.12732601999999998,0.1953759499999999,0.12972980000000006,0.014574436674986698,0.03309251284729495,0.027228444512398794,6,LAYING
-0.11430105605234375,-0.34982828070312505,0.1502934674765625,0.13202715943468477,0.17608803219674926,0.15341344914386162,0.05640339,0.206799,0.6700373,-0.5547746,-0.9607107,-0.2894206,3.9034754871133037,19.633513096016365,5.903848031276129,0.185714828,0.2011791,0.17377868,15.630070753300005,45.35977657,22.040157179000012,0.0828991275,0.09940970000000005,0.08321762499999999,0.013866134198119098,0.02438818848884826,0.016460589389854025,-0.20847591432656248,-0.004424815593750002,0.017815131353828128,0.7675348785479476,0.22688185966703073,0.1346137037487654,0.8854364,0.9701211,0.4006077,-3.536968,-0.5515048,-0.4747971,80.96921557016434,6.591354526593145,2.3600932021906598,0.554144,0.13660002999999998,0.08406055,54.06535612380001,19.671401806000002,12.20469060269001,0.1811010335,0.06830001499999999,0.0428035705,0.08343318009953343,0.026973744059858498,0.016203823675701716,-0.18417366031250001,0.19267001144765622,0.91106153671875,0.07411926739968272,0.2533040294088129,0.15070553090374925,-0.01032836,0.9783739,1.281363,-0.4665558,-0.1795554,0.3253131,5.044941177954537,12.964437072125532,109.15139593386385,0.0684642,0.46279433000000003,0.07182880000000003,23.57422852,29.736190427300013,116.61587669999999,0.0346814,0.15370582000000002,0.028715600000000008,0.012132928625136954,0.028357393485086625,0.02952863396131089,6,LAYING
-0.00414207125390625,-0.20808851327343747,0.04151779249296875,0.027411596061232602,0.18469419352616642,0.06916514555693039,0.05640339,0.04773669,0.2344684,-0.1279062,-0.5424653,-0.02381598,0.09837470117076723,9.90883513326472,0.8329656900352739,0.018472572,0.36553473,0.10125794,2.2950793150999984,28.491711788999993,6.695415434500003,0.008934746,0.17341605,0.021999902,0.0030985920018519325,0.014588843477917602,0.0064932482518456815,0.0800364705234375,-0.018494700546875,0.048399356875,0.2576858021155898,0.11012048207024479,0.060827651397416214,0.2793978,0.4405429,0.135509,-0.753663,-0.3630309,-0.1693974,9.319399580902912,1.5959775385218138,0.7734401178162177,0.17361708,0.02971888,0.032038819999999996,29.186524233,8.809984808000003,9.1708013,0.07806375000000002,0.015281935,0.015017675000000005,0.025185314023462517,0.012191154406086915,0.0056973504894740675,-0.19305611156249997,-0.030094136052343748,0.9691328632812499,0.029433539620848423,0.06054010647150921,0.018389869460885725,-0.09537732,0.3093866,1.033581,-0.288964,-0.08890109,0.888465,4.881535419679296,0.5850574740887864,120.26325683078427,0.011099899999999996,0.02788297,0.011860800000000005,24.711182280000003,7.243650407300001,124.04900649999998,0.0059031999999999835,0.011552529999999998,0.006362299999999987,0.006364777220786394,0.007645008911939515,0.01760221272000334,6,LAYING
-0.00015169876757812505,-0.005250114765625002,-0.004911223240625,0.008728667699147537,0.07190126938644992,0.008268011271589874,0.02029694,0.0585493,0.01436808,-0.02163373,-0.2110371,-0.02381598,0.009755219496732968,0.6652615992876895,0.011837455885618221,0.013487991,0.06031504,0.012046339999999999,0.9296889188499999,6.830160598000005,1.007449808,0.0065356015,0.02310887,0.005989663,0.0009172463285281596,0.006008272684861037,0.0008144688644201013,0.19487829140625001,-0.0253284371484375,0.055677073671875,0.04852142946665104,0.014945464433317275,0.01920561156897318,0.2793978,0.02243954,0.0927452,0.1014594,-0.0671657,0.01960727,5.162480330100032,0.1107067693452672,0.44400538219541386,0.09311900000000001,0.01975797,0.03343142,24.9444213,3.3477381470000003,7.126665430000003,0.0415215,0.009513145,0.01675319499999999,0.006265381998050264,0.0023200223778926292,0.002325254414240868,-0.19960603125,-0.046115977890625,0.97164999921875,0.0062430496666136415,0.015583158338458586,0.00493990315198739,-0.1814377,-0.02442369,0.9847474,-0.2170045,-0.08890109,0.9583884,5.1048375527060195,0.303298334798091,120.84839982399336,0.00811050000000002,0.020150809999999998,0.006407999999999969,25.549571999999998,5.90284517,124.3711999,0.00405525000000001,0.009905365000000003,0.0031233500000000247,0.0038942699669905607,0.0020962479140067846,0.015773235080426724,6,LAYING
-0.0018392330276562501,0.0176070095140625,0.0015135972181875,0.006043184556531097,0.019439634917068824,0.005128738307697667,0.01399571,0.0585493,0.0157224,-0.02163373,-0.006579629,-0.0142458,0.005107565787432638,0.08805199228636279,0.003660151445472059,0.0083006,0.0371837167,0.006562124,0.59498830976,2.4012889660000005,0.5414433196680001,0.0036370668500000005,0.0126107375,0.0033797809999999997,0.0007658029471180946,0.001696539017187039,0.0006122983801376157,0.11782843703125001,-0.015051913546875002,0.032194684328125,0.04487595844839569,0.011067931932333006,0.01690322049204402,0.2085809,0.02243954,0.07023235,0.04383151,-0.05228332,0.009947104,2.0348662041458407,0.04467957999121353,0.16924371993475512,0.07448044,0.012431860000000001,0.01927734,15.082039939999998,2.032343126,4.120919594,0.034322075,0.006197207000000001,0.00993855,0.005661131730136259,0.0016391361415877875,0.00189976329791411,-0.200835546875,-0.03267160390625,0.9731089390625,0.005318799760797448,0.007475264901719749,0.0042218583917925405,-0.1814377,-0.01894193,0.9850248,-0.2170045,-0.05331323,0.9619381,5.166490434492896,0.14378410075619505,121.210730415568,0.005364399999999991,0.008381850000000003,0.00516289999999997,25.70695,4.1819653000000026,124.55794419999995,0.0026285499999999795,0.0038463699999999983,0.002534349999999963,0.0038232590372345677,0.0012943438658910063,0.015724306548131325,6,LAYING
0.00158425133,0.004326886802343751,0.0015071642420390625,0.0028711289069701675,0.005159299942341981,0.0038346819726763565,0.008791182,0.01536506,0.0157224,-0.006280127,-0.006579629,-0.007994163,0.0013764138850619499,0.005803561637804356,0.002172970225158427,0.0040927489,0.007680912,0.0049369856999999994,0.3353963621799999,0.7024309939000001,0.40597829884099995,0.00204637445,0.00365898065,0.002545566,0.00040302410864889347,0.0005640359870729707,0.0005297327482713093,0.0481197207625,-0.00659228029375,0.010626708657578122,0.03435676185830274,0.007253925941145616,0.011179081161423583,0.1071934,0.008444681,0.03198244,-0.002013969,-0.02446343,-0.01002326,0.4474745102910849,0.012297932931966717,0.030451045440862922,0.06719132,0.00976457,0.020224725500000002,6.171537576799998,1.0469007736,1.6180955494300004,0.036561575,0.0052141565,0.009636165499999998,0.003330409542481801,0.0008745187002964095,0.0011345693827707185,-0.19930320703125,-0.02355774734375,0.9745531828124999,0.0029054289500751755,0.006551948719209003,0.00357148350601919,-0.1922968,-0.01217713,0.9850248,-0.2079937,-0.03686137,0.9655085,5.08546686084163,0.07653062296718138,121.57013268792419,0.0040151999999999965,0.011157820000000002,0.004466300000000034,25.51081050000001,3.0153916599999997,124.7428074,0.002047750000000015,0.005741315,0.0022288500000000044,0.0034949250199166385,0.0008868594181178464,0.01568971038428355,6,LAYING
0.0012161961604374998,0.005042507360312499,-0.0003235790884140626,0.0031670860261068037,0.0039790742029762564,0.00371389964621333,0.008791182,0.01444246,0.01022721,-0.007671629,-0.003295907,-0.01015304,0.0014732245756702588,0.0052812687349243995,0.001778912513101103,0.0041969219,0.005054254,0.0047132960000000005,0.33914802941600003,0.6749481820800003,0.3761320748030001,0.00196336305,0.002666983,0.0023566480000000002,0.00043531483120212667,0.00048502311918364283,0.0005020458298658582,0.005523137333984376,0.0002472017054687501,-0.0022637730846093752,0.01751110297464546,0.005838816469803854,0.006487258925312581,0.06009011,0.01158231,0.01701593,-0.0200018,-0.01540932,-0.01598679,0.04315440299503221,0.004371569465758643,0.006042777208659143,0.018532503,0.006687522,0.0062243756,1.6729098552500001,0.5941383347000003,0.7250574664300002,0.0096474765,0.00311933,0.003416169185,0.0017191115101714556,0.0007569932770305798,0.0006769969173516656,-0.19803603203124998,-0.016894076953125,0.97424469453125,0.002937033523385394,0.0032815758244974127,0.0036717038727635664,-0.1912884,-0.01071455,0.9849173,-0.2057745,-0.0257553,0.9647819,5.021042707020768,0.037910857726724534,121.49327439764707,0.00445089999999998,0.004693030000000001,0.004894800000000088,25.348612099999997,2.162441850000001,124.7033209,0.0022210000000000146,0.0023465150000000004,0.002447400000000044,0.0034718401415510785,0.0006437587774743996,0.015716986469121185,6,LAYING
-0.0009373875487031251,0.0036408520853124997,-0.0009400673867187498,0.003637903989408782,0.003428222937663378,0.0038366284293204185,0.009619948,0.01326333,0.007367771,-0.009813025,-0.00719287,-0.01015304,0.001806469229135358,0.003201090101433049,0.001997240882718961,0.004929803,0.004687339,0.006182329,0.38329642950599996,0.5355720518800001,0.42062706036,0.0025968644999999997,0.0023798664999999997,0.002971124,0.0004583621602172191,0.0004579251272923207,0.0005231305546702256,-0.0060042573753906255,0.002543336938046875,-0.00439023765390625,0.008110744191710534,0.004352897479810093,0.004547002481123173,0.01199177,0.01158231,0.007120273,-0.02494424,-0.01112572,-0.01598679,0.013034915580582259,0.003253283744021852,0.00511352553230292,0.0129072322,0.0054075500000000006,0.00641044,1.07448463045,0.5212438768700001,0.6863264696999998,0.0066624957,0.0024317295650000004,0.0027312560000000005,0.000850532708993329,0.0005899987602184651,0.0005744629045892649,-0.1992261796875,-0.0128492675,0.97315004296875,0.0036702972640458432,0.004276545589795874,0.003792968742779273,-0.1886926,-0.001558632,0.9822782,-0.2082813,-0.02150609,0.9647819,5.082181344624957,0.02347424223592433,121.22053027097127,0.005233600000000005,0.004955320000000001,0.006241500000000011,25.500951,1.6447062399999994,124.56320549999995,0.0026794000000000123,0.0025689350000000005,0.0031532499999999963,0.0035627908115909187,0.0006977817371569585,0.015705836051059918,6,LAYING
0.0009161932421875019,-0.010782967353125002,-0.0087836404828125,0.21880245354852407,0.14854976899147865,0.14827564955267494,0.5305173,0.2346876,0.4113415,-0.495272,-0.4309048,-0.3287314,6.128045195380614,2.8394632003021094,2.8240410355710686,0.2676263,0.15091344,0.16910435000000001,21.774258623,14.491697565199999,15.130722913799998,0.12327160000000001,0.08286318000000001,0.06916525500000001,0.022648268849354745,0.016342240046907326,0.013957062445760034,-0.46622599656249997,0.070601635421875,0.0752891383125,0.5884482093400366,0.6562920866708519,0.2642686053422219,0.8611814,1.613873,0.7457733,-1.485695,-1.445156,-0.5953186,72.14566079311258,55.770098425731135,9.66481281502231,0.9934078500000001,0.8597797,0.3558796,79.69406374000002,67.06230092000003,28.268176584,0.48617221,0.41957491,0.17668298,0.06188618380678681,0.06826114511643587,0.031835565060042446,1.00515624609375,-0.2383587159296875,-0.04591720158593751,0.21863843047215065,0.14784540566708712,0.14385809383500237,1.531087,0.01665338,0.3586488,0.5084297,-0.6488126,-0.3648347,135.4421558195974,10.07016210387392,2.9188531921054683,0.26809879999999986,0.16050400000000004,0.15880474,128.65999949999997,30.566502140999997,16.231752259,0.12482875000000004,0.08224129999999999,0.06993261,0.03839141297653523,0.01965392173655063,0.014255382450138191,1,WALKING
-0.0044791686873437535,-0.024868136696875008,0.004334496220312499,0.2508656573222688,0.1746966429668759,0.13551690298793226,0.5305173,0.253024,0.3963403,-0.495272,-0.4577408,-0.3287314,8.058066044910548,3.985579684693832,2.3531032131743417,0.4202283,0.23553059999999998,0.15978703,26.506308319820004,17.611628083200003,13.26100674380001,0.1951536,0.106337585,0.07824966,0.026038702141722193,0.018265242281800674,0.015363406065095512,0.12558358382812498,-0.106016830046875,4.796548437499201e-05,0.5227798838896571,0.6971052305497687,0.29052545206977426,1.079504,1.500908,0.7457733,-1.42357,-1.445156,-0.6241102,37.000965571430285,63.64099465126835,10.8038451969324,0.6591163,1.0512008000000002,0.39522060000000003,54.97615101000001,73.50749747400003,30.00872471,0.32328115,0.53988415,0.20144814,0.05518724766554547,0.0648711987975232,0.030499891214235415,0.99679782890625,-0.25853001697656247,-0.03350532237109375,0.2503762249031146,0.17340778015598277,0.13472347250009795,1.531087,0.01665338,0.3577197,0.5084297,-0.7040854,-0.3648347,135.2056532107455,12.404227570755502,2.4669466457184734,0.4188974999999999,0.21768120000000002,0.16439776,127.59012210000004,33.14338398699999,14.335670450499999,0.19438145000000007,0.10664615000000001,0.077040845,0.041445604647221176,0.021721549289726423,0.01566133939184608,1,WALKING
-0.00467979327328125,0.010990054531250001,-0.0050708719687500015,0.2359944990564622,0.1741136352125288,0.13120688367529348,0.5166397,0.2635998,0.3963403,-0.4282726,-0.4577408,-0.3016378,7.131558918398872,3.8958514259867383,2.2068428884870985,0.3292303,0.18180308,0.12154983,24.157436566819992,17.846570019999998,12.842650431999996,0.155662635,0.08955430499999999,0.060868565,0.023646026795351372,0.019029624348925363,0.012974628489995609,0.24636389251562502,-0.08965132049999999,0.006927958265625003,0.48271912297053204,0.7164216984585737,0.3171011908407691,1.079504,1.54031,0.7861582,-1.026,-1.564677,-0.8303053,37.59525365976192,66.72606838907663,12.876948715310602,0.6997630800000001,1.1155354,0.4320862,59.64470808200001,76.50242517599999,33.30711847599999,0.32361305,0.5577677,0.21584756,0.0496594783582255,0.06777899732305603,0.036066421117507866,1.00031071171875,-0.23489924676562496,-0.035728561167968756,0.23538556219524653,0.173633516837733,0.12973116076692467,1.528028,0.01473926,0.3577197,0.5814143,-0.7040854,-0.3259199,135.17156900726326,10.92176055046366,2.317658132104567,0.32593269999999996,0.1890305,0.12579600000000002,128.03977109999997,30.140124204000006,14.041193706499994,0.15487499999999998,0.08705745,0.061024880499999996,0.039095328282009546,0.022327659509784596,0.013411472628527474,1,WALKING
0.013559022351562502,0.0014119551828125076,-0.019512986734375,0.25063373076005857,0.20148080729892517,0.14392243451291736,0.5318221,0.3245707,0.3332878,-0.4369445,-0.4966004,-0.3484142,8.064142602474968,5.196353193889904,2.7000862473498723,0.3744548,0.21882372,0.13440841,26.107159278999998,20.470973581399992,14.625008806000006,0.17878646,0.10213884000000001,0.06913439,0.02616247338729382,0.0219630537418097,0.014343886869048595,0.12763623463281248,-0.04020771619609374,-0.0267648990703125,0.5564762131457496,0.7968041694486799,0.3513049387738488,1.038888,2.128034,0.7861582,-1.605516,-1.564677,-0.8303053,41.72246837609934,81.4737337462408,15.88883453813014,0.7001926,1.010251,0.5638396,61.199407572999995,81.29308247309999,37.708981459000015,0.33467203999999995,0.49649645000000003,0.28085395,0.058130528457748326,0.08648679026503628,0.03661485367519973,1.02285026875,-0.24004275233593753,-0.050717068726562495,0.24999200997326637,0.20054852692534,0.14286146433474045,1.533829,0.08176948,0.2942016,0.5714407,-0.7313113,-0.3827815,141.91599069854993,12.523550028919814,2.9416472386663925,0.37214629999999993,0.21223607,0.13729026,130.92483439999992,31.10537857099999,15.747453825,0.17648445000000001,0.10679092999999998,0.069430511,0.0418344750933061,0.02555651236623771,0.01480439831403179,1,WALKING
-0.000275332171875,-0.006556547547656246,-0.011333538976328123,0.2517167994727415,0.19984337031981378,0.16019534433876492,0.5318221,0.3245707,0.4190387,-0.4369445,-0.5133524,-0.3649199,8.110262136909467,5.117486204995443,3.301247674053558,0.41011549999999997,0.25079640000000003,0.17808204,27.799101837999988,20.15016009690001,16.01080342297,0.209331685,0.10321732,0.07098149000000001,0.023694849100219795,0.0205201928043757,0.016553293364618655,0.03755891040624999,0.038828459264843754,-0.036362444367968746,0.5415984831157798,0.8664845528308505,0.3358665206019839,0.941785,2.128034,0.6784206,-1.605516,-1.494807,-0.7612723,37.72666734901994,96.29480058155016,14.608454018777154,0.748722,1.0989518,0.5438078000000001,57.09362123199997,89.02072943210001,34.6701739151,0.34333990000000003,0.55683558,0.26701865,0.05173317614266679,0.08827502399608775,0.03336947378039665,1.0052535554687498,-0.24527713239062499,-0.044789579146875,0.2515832629623438,0.1995600090344076,0.15769990378989013,1.533829,0.08176948,0.378188,0.5714407,-0.7523638,-0.3885285,137.45009267012387,12.798088816586368,3.440046855103332,0.41978420000000005,0.25549343,0.17837878,128.67245509999998,31.845753413999997,17.032014266800005,0.20169379999999998,0.10371487000000001,0.068983055,0.039344697205014864,0.02419936784852369,0.016882877669060638,1,WALKING
-0.004555941093749998,0.02011885033984375,0.019608418608984372,0.25237698507416406,0.17568474150841432,0.16187000669928964,0.5846573,0.2873604,0.4558934,-0.4005187,-0.5133524,-0.3649199,8.155507096879942,4.00254675684805,3.4030578110941723,0.4154398,0.18754208,0.25369303,27.474257140000013,18.250969422500006,16.355954474050005,0.20255165000000003,0.088925625,0.08128873,0.021818430131044855,0.019760862071050524,0.01579055812771863,-0.015348241070312492,0.0776376071015625,-0.0007423726101562465,0.42597648807697674,0.7846720446963575,0.30486587177135044,0.8499984,1.830636,0.6784206,-1.195586,-1.433065,-0.7879287,23.25651672298843,79.58244041784569,11.896800113663712,0.5949386,1.2151814,0.3744895,44.522506406999995,81.53056560900002,29.95485475209999,0.322404461,0.5561278000000001,0.17804907,0.043938566995340295,0.08193120859507819,0.029479609227632604,0.99999955859375,-0.216282132625,-0.011979294412500001,0.25227763649613155,0.17589097099646886,0.15971131419172568,1.590203,0.05042618,0.4211553,0.6027336,-0.7523638,-0.3885285,136.14631975216244,9.94759610507504,3.283354544060092,0.4178685,0.18914951000000002,0.25391,127.99994349999999,27.98729988400001,16.913357098799995,0.2023243500000001,0.09176493000000001,0.08431945499999999,0.037326813454062524,0.02293045956175945,0.015558955685101978,1,WALKING
