body_acc_x_mean,body_acc_y_mean,body_acc_z_mean,body_acc_x_std,body_acc_y_std,body_acc_z_std,body_acc_x_max,body_acc_y_max,body_acc_z_max,body_acc_x_min,body_acc_y_min,body_acc_z_min,body_acc_x_energy,body_acc_y_energy,body_acc_z_energy,body_acc_x_iqr,body_acc_y_iqr,body_acc_z_iqr,body_acc_x_sma,body_acc_y_sma,body_acc_z_sma,body_acc_x_mad,body_acc_y_mad,body_acc_z_mad,body_acc_x_amplitude,body_acc_y_amplitude,body_acc_z_amplitude,body_gyro_x_mean,body_gyro_y_mean,body_gyro_z_mean,body_gyro_x_std,body_gyro_y_std,body_gyro_z_std,body_gyro_x_max,body_gyro_y_max,body_gyro_z_max,body_gyro_x_min,body_gyro_y_min,body_gyro_z_min,body_gyro_x_energy,body_gyro_y_energy,body_gyro_z_energy,body_gyro_x_iqr,body_gyro_y_iqr,body_gyro_z_iqr,body_gyro_x_sma,body_gyro_y_sma,body_gyro_z_sma,body_gyro_x_mad,body_gyro_y_mad,body_gyro_z_mad,body_gyro_x_amplitude,body_gyro_y_amplitude,body_gyro_z_amplitude,total_acc_x_mean,total_acc_y_mean,total_acc_z_mean,total_acc_x_std,total_acc_y_std,total_acc_z_std,total_acc_x_max,total_acc_y_max,total_acc_z_max,total_acc_x_min,total_acc_y_min,total_acc_z_min,total_acc_x_energy,total_acc_y_energy,total_acc_z_energy,total_acc_x_iqr,total_acc_y_iqr,total_acc_z_iqr,total_acc_x_sma,total_acc_y_sma,total_acc_z_sma,total_acc_x_mad,total_acc_y_mad,total_acc_z_mad,total_acc_x_amplitude,total_acc_y_amplitude,total_acc_z_amplitude,Activity,ActivityName
0.019790891785552593,-0.032500556323958436,0.03557269898941069,0.027337408662883717,0.04289154396748675,0.040555256099660396,0.06253404267420846,0.09538378482788723,0.09925554516401824,-0.0534119959824336,-0.09813425431602592,-0.08030010473388138,0.14579370368882733,0.3706842502760503,0.37249865096963364,0.046450827863167815,0.06975644182563483,0.06309894333004884,3.5646835623233013,5.575897840357549,5.690246092193787,0.023227771017885826,0.03373622763959897,0.031262708725605215,0.0025375450535684964,0.003533242112062291,0.0032199101894329384,-0.0006809584561737123,0.001111858196476763,0.0009410678968063677,0.0008853759365989345,0.002678552022566285,0.0020039718384530026,0.0009152915526649034,0.004257839210561731,0.0055326430939002715,-0.003169900405954957,-0.007866398987712516,-0.001585711189020593,0.00015969215592229451,0.0010765913070933115,0.0006273935252111703,0.0013866998322538417,0.0034475598973138515,0.0033897691212065404,0.10637359805021566,0.3097522535256946,0.21218863102463947,0.0005774919793468641,0.001723779948656926,0.0013492274992016316,9.957316287155887e-05,0.00023701420288903087,0.00016266304793399674,0.1438765592109375,0.0757353335703125,9.603610789062499,0.03138316537855173,0.032768751806287175,0.028516324670773155,0.24899697,0.17717093,9.81892,-0.01436521,-0.04070143,9.541193,2.7757270220231574,0.8716328762814144,11805.459631177015,0.03351883,0.03591302,0.016759000000000412,18.444929998999996,9.856928415000002,1229.262181,0.016759410000000002,0.01915361,0.009576000000000917,0.006997971420031009,0.006174593124244341,0.15462930631748198,6.0,LAYING
-0.08638539972247854,0.1363756239974784,-0.14765782076037556,0.12649406781815287,0.203707908216951,0.2174883627002935,0.05810124485359182,0.45893263020510333,0.09925554516401824,-0.2845111506238981,-0.09813425431602592,-0.5011170086129955,3.0032878692346707,7.692188504425899,8.845314552544977,0.25306760075373547,0.42056771682031735,0.4328429125811297,15.407141680566353,24.488838381471712,26.213021312872087,0.10356817912493352,0.16986178385358205,0.1704532689421514,0.0074658389367083565,0.011688594120189376,0.01210795395937293,0.001971091838099882,-0.007317453423610556,-0.0006812186600679471,0.004254593063883689,0.009790267463976285,0.006862730488124751,0.010837190346713236,0.004257839210561731,0.0055326430939002715,-0.003169900405954957,-0.022857858189864893,-0.023195802131741862,0.0028143059422043094,0.019122491087731508,0.006087824462779104,0.0069306344674749335,0.0199753092891189,0.004874503276968404,0.4291801956950955,1.223761095436803,0.6077169980785196,0.0016533686539072362,0.008818975075395055,0.002513398417241912,0.00033936917461312714,0.00048519580969554185,0.0005857326555717458,0.14952537894531248,0.070498017015625,9.60108565625,0.01978808712853173,0.028694249031296328,0.018294930243545997,0.21547815,0.17717093,9.732729,0.06703765,-0.04070143,9.557953,2.911924139641044,0.7415462823174918,11799.191101839626,0.021547800000000006,0.026336220000000007,0.016759000000000412,19.139248505000005,9.167398281999999,1228.9389640000002,0.011970990000000015,0.014365210000000003,0.009576000000000917,0.005378169593174639,0.005385897049808984,0.15284589217668693,6.0,LAYING
0.2841222974147708,-0.11629950298338727,0.24803282832192064,0.7892050139553447,1.7963271174052997,1.8119559596553603,2.4302990470501107,5.067141020005268,4.314902643904159,-1.979115218724513,-4.059332001972965,-7.588042140398875,90.05696434438443,414.7605359513365,428.12219950796157,0.9979013458581432,1.2929870198722275,1.4605406944504153,73.4282380376988,147.9139591617356,145.17990665832784,0.18526568895443427,0.2594702048785881,0.29249556195506177,0.08707411158637679,0.17918188069506474,0.21258530319998498,-0.002116391929053836,-0.011081523793246405,0.004635477507568392,0.07773957459436671,0.2302897957535981,0.19782438451133677,0.4073323297781581,0.6594783649242965,1.2053191633492548,-0.4078722278897387,-1.1560004898223972,-0.5716317401873554,0.7741338333325403,6.80399234532022,5.011964769153586,0.009753780117947839,0.08866857698499697,0.04022809122485619,3.4359236719782613,13.428923191242884,9.078016924713063,0.004752404752150163,0.01412863818420737,0.020159827870741595,0.012463767559316382,0.028009189378622686,0.02519651970497573,-0.07268880425781249,0.8300093875234376,8.99074890703125,1.01693700299913,2.6607596205837947,2.3190389906027353,2.7246015,12.981661,12.677597,-5.794267,-2.813187,-2.6264393,133.04889988266027,994.3753397640002,11035.072991900071,0.02394200000000002,0.028730420000000007,0.019154000000000337,52.02151365500001,112.51401005700001,1164.9943224999997,0.011970990000000015,0.014365210000000003,0.009577000000000169,0.14781412269961108,0.3217574050593609,0.4402654596588756,6.0,LAYING
0.08025253942980884,-0.13390766111794367,-0.016993910641207255,1.5854734060380742,2.0575128415916657,2.1940421785477353,3.288242680818195,5.067141020005268,4.314902643904159,-3.6850110176163944,-4.059332001972965,-7.588042140398875,322.58129809137984,544.165165442648,616.2060639034075,2.07757302158889,2.2474349597657532,2.7309892906802915,161.81191542689226,200.75943112810805,211.8641357711333,0.983656431357704,1.1292706630099256,1.3369008865596288,0.16130898230980728,0.22542817824896186,0.24805663265073635,0.04810386114440188,0.013131502361553263,0.012905335738525236,0.22639008770311578,0.48358157434087085,0.23193482824065167,0.6158779245437199,1.3635011543218702,1.2053191633492548,-0.5637390424155154,-1.203519528491548,-0.5716317401873554,6.856506018204719,29.955017650722148,6.906919966917719,0.20198671366784907,0.1672432834071549,0.12210691632714743,19.200423761251663,42.98940091508031,17.434092839475966,0.03530169905572972,0.09725678976177647,0.04491442043576142,0.02796634972431209,0.05391853009576438,0.027658163183458144,-2.5346973724140627,4.95007041540625,4.449981649953124,2.936709451927711,4.471558500799479,4.765472302316152,2.7246015,13.958495,12.677597,-10.180445,-2.813187,-4.618415,1926.266006369832,5695.748165574694,5441.544057479928,5.14304471,8.82772095,9.344868029999999,348.4311645709998,639.8818216260001,655.4489355539998,1.84114107,5.1223948,5.0984525000000005,0.36768055669308397,0.5061222394844216,0.5403310654326617,1.0,WALKING
-0.19386595528614103,-0.010071990753145937,-0.24933001500054228,1.689143112747143,1.4450542646418834,1.7263071489494572,3.288242680818195,3.552444803274148,3.5249352304949504,-3.7801013109168506,-3.4226378545415574,-4.452511036654081,370.0209233868947,267.30025891295037,389.41463409845414,2.500807575981368,1.925978175844545,2.09640713207461,176.68805571937958,152.26081796592086,177.8695515771811,1.2136537718471658,0.9929813939213554,1.0084735430926015,0.17360780925108857,0.18145303704005705,0.19354061319976085,0.3746595223777778,-0.4151202461837343,-0.05510320486508519,0.3964437220210798,0.7390267036306006,0.18365605645076305,1.212760611356713,1.3635011543218702,0.6091679843080829,-0.5637390424155154,-1.6849546240708435,-0.3960646835098557,38.08478495209881,91.96611679625674,4.706036512953525,0.43494842852829024,0.9056175326223513,0.25041875975069083,57.2956446440963,85.94383159077017,19.852954359471962,0.1694556705836529,0.5412859551994675,0.14489615072562428,0.04431378693751625,0.07546045015242377,0.019599229532005054,-4.514407580812501,8.575275304687501,0.30167176070859375,2.0253381688242977,1.93938042541312,2.1996422846043595,0.107739076,13.958495,6.0696006,-10.180445,4.3526587,-5.84694,3133.679424485623,9893.957502164332,630.9673000228496,2.4208373,2.7629088,2.5091232999999997,578.059648496,1097.6352390000004,216.62407862069998,1.2463316,1.3874399999999998,1.20069216,0.3574557257143607,0.4243799255126386,0.31289482930368717,1.0,WALKING
0.012751889153563081,-0.07395163726820372,0.1267810632842436,1.41892538477876,1.3341933276680817,1.5930230374389467,2.708411433109787,2.4011376602800336,3.5249352304949504,-3.7801013109168506,-3.4226378545415574,-3.2446703928914933,257.7295178555569,228.54920707183055,326.8858669847924,2.170707777820424,2.197511564465122,2.3756270449755483,148.36499981653577,148.2716571617099,168.62371465036884,1.10194600793856,1.1348596882335888,1.1632225071209934,0.1337176559929964,0.16154459115090128,0.1831227853971673,0.4166697047942266,-0.7007005414280936,-0.14410935467344313,0.4251758032695572,0.6942916847586552,0.1680529173936477,1.212760611356713,0.8386537690919933,0.1045486901310199,-0.17949532469921903,-1.6849546240708435,-0.40536455569655094,45.36167764214031,124.54684061217735,6.273189011060781,0.6877858446154016,1.0631126891301588,0.30455312937719536,60.63286899326499,109.06433261266558,22.27395780767692,0.3857481402068786,0.5125706773082307,0.12828234326749888,0.03288951388235146,0.04890198584715014,0.014382326677144397,-4.457215621874999,8.818964842187501,0.00312134494296875,1.6418007447192753,1.5901484938208363,2.030368260745899,-0.5386954,13.221081,5.633856,-9.921871,4.4460325,-5.84694,2887.9719405116566,10278.747279377898,527.6678421809384,2.42802,2.3654716000000002,2.7533320999999997,570.5235996,1128.8274998000002,205.3204535307001,1.2210428000000004,1.2198462499999994,1.32279647915,0.25552016147981277,0.34592946540689595,0.25451453873599444,1.0,WALKING
0.0406379669763865,-0.003389877852781553,-0.12471016651026488,1.4473359600472506,1.2507157640818447,1.5159193570215672,3.6212808153051066,2.4011376602800336,2.928380298966973,-2.654451823207287,-1.996021896568255,-3.5361838181462844,268.3434016775514,200.2305809657203,296.1362076958335,1.7942599377001445,2.250710628726459,2.2589102596409725,145.8895819034655,142.95976576444272,162.7270133523151,0.9314501279058613,0.9408111705524789,1.1275886349849698,0.14903881753846604,0.12897493758361114,0.1651097371610874,-0.1525942992482111,0.022922317813097955,-0.08313237550698518,0.5425629068259944,0.8311994862941553,0.14534812663093125,1.0479802087698993,1.4409352777718947,0.17978521639665976,-1.4036331250717817,-1.4658298346250513,-0.40536455569655094,40.66041958739523,88.50150638970784,3.5887449308871195,0.2222762940422961,1.3369708730976626,0.09371623091775966,51.118920004885965,91.2628088474653,13.079744205919317,0.08392706412822908,0.5090708908721381,0.05108210174534282,0.059033901443452594,0.07543492119371098,0.012023226265252183,-5.067870327031249,8.22782375390625,0.318484935203125,1.8593151688683345,1.7002353845010303,1.7936331146727178,-0.5386954,12.1484785,4.1276035,-10.340857,5.123891,-3.928885,3729.9664062448246,9035.249163270826,424.7747077122425,2.7632081,2.619257,2.3846248500000002,648.68740186,1053.1614405000003,191.31347551400003,1.3542202000000003,1.2880807499999998,1.1312603,0.3130973441880329,0.34527026251855025,0.22618071617321428,1.0,WALKING
0.05485221738232915,-0.13997831968984625,-0.05931288706476806,1.5170665431416481,1.3864833976825497,1.7606362506807818,3.6212808153051066,3.2146156610266248,3.5977513335388864,-4.147146226642927,-2.695798393452974,-3.656722677558229,294.9759567451529,248.5670581801651,397.2298273002545,1.7950171337862564,2.181228404300196,2.234277812166935,148.29892627446714,153.23871993738663,177.51922933174012,0.9451194754274339,1.0093083694384108,1.0127688783996398,0.16216005604547942,0.156906642122912,0.17682217490832972,-0.5840994733196436,0.7043607605789258,0.11946686596423957,0.5313073995596139,0.44472254015670654,0.14359796793078125,0.17054649564942612,1.4409352777718947,0.37138699590325325,-1.4915817791592139,-0.012179711252380855,-0.06239124404062708,79.8028476875628,88.81948400214485,4.466266682517409,0.782873385802446,0.964796029911287,0.2719162645014891,77.4934765153052,90.3286933116358,17.216365759077718,0.35968799201446094,0.4785612949704721,0.10201855971180351,0.04176447867643184,0.04330650972772287,0.009816452927194304,-6.113257349687499,7.27872388046875,0.982249303796875,2.041431889106535,1.8254598396676611,1.932655568099039,-0.82360536,12.1484785,6.301838,-12.071864,3.8115692,-3.928885,5317.038026415271,7207.951994156229,601.596318683349,2.7991209,2.597708999999999,2.09492647,782.4969407599999,931.6766566999997,217.67004418600007,1.2773065,1.24139365,1.0342951870000001,0.35115283520908647,0.35205659743730927,0.22954582429141832,1.0,WALKING
0.05119131755654574,0.005976006812269924,0.07327799550109035,1.5251376323586083,1.364371661014038,1.8306080203301067,3.8881678419233747,3.2146156610266248,3.5977513335388864,-4.147146226642927,-2.695798393452974,-3.7547824975719344,298.06916462458804,238.27785498055994,429.63140975636105,1.8648014107863267,1.967424595895639,2.5108980972073702,148.88238441589905,145.26179533647215,188.53034940603422,0.9772873651932059,0.9812959611069298,1.032097668651332,0.15759927918978012,0.14873747498962397,0.17255292702767008,-0.26819418396313044,0.2572148721524119,0.14078262520353796,0.6344356783868284,0.6946267702858658,0.1398785868319718,0.7333382976541136,1.4409352777718947,0.37138699590325325,-1.4915817791592139,-0.8111564162281509,-0.11200513579754776,60.72790404119095,70.22922757813178,5.041378126503607,0.5665491444831399,1.3514322790264797,0.20968839913178833,65.59978872361232,78.7456084432426,21.74609333997857,0.3865931103874819,0.6355510572325209,0.06626846420818547,0.06254083462281601,0.06478349059714666,0.012822196580569916,-6.84770679453125,6.727225148437499,1.3258780402007813,1.8702923637294782,1.8127533034040608,2.0668079867373725,-2.6360161,11.502045,6.586748,-14.250587,2.6767175,-3.9863458,6449.802479320865,6213.328990306853,771.7949224355915,2.2146365999999995,2.6934766999999997,2.2936452099999998,876.5064697000006,861.0848189999998,246.03475043969996,1.0953475,1.3275845000000004,1.1145009026500001,0.3427286616058194,0.3319576939994616,0.2654412536850383,1.0,WALKING
0.08726229704010087,-0.04885985719366634,0.11295129667588227,1.4398198900655976,1.199885910738113,1.4735824508246689,3.8881678419233747,3.1894815442344093,3.3014529608114866,-4.119155002532245,-3.3734440876295118,-3.7547824975719344,266.3290911120926,184.5905260074004,279.5780140542975,1.491368739262671,1.6209676813854053,2.0437005513435973,136.11795661351613,124.6736615933385,153.78384362663087,0.7406826470956878,0.7628469762345622,1.0584563486297909,0.16056927865210602,0.13179115420928464,0.15517210494273154,0.7339110582840022,-0.7127030990623158,-0.19584282104808548,0.7094356351278263,0.5150958042228698,0.2653165292911107,1.9767165210851143,0.1673435773180641,0.16475656148337003,-0.37832487369302886,-1.401571445157078,-0.5865628090668197,133.36631831817814,98.97848255245232,13.919650722707614,0.9222256626482462,0.8430761065161876,0.5783784695939201,104.96289416007879,97.37262023538526,34.1015723298702,0.5451140268640026,0.39825413708124724,0.22552188798602205,0.06901572881448058,0.05032207906211932,0.017986077152288032,-7.51904656328125,6.0065400171875005,1.3366636344820313,2.29236838501353,2.028639490768649,2.001445235107084,-2.6360161,14.580988,7.7790604,-18.550873,0.9888053,-3.9863458,7909.249796275341,5144.819348682357,741.4339457125844,1.8028339999999998,2.4615387,2.10450328,962.4379601000003,768.8371222000003,250.25004203969996,0.8978254999999997,1.1866262500000007,1.03429518,0.44681583741937886,0.3896208577765172,0.3079806292873616,1.0,WALKING
-0.017603619561695427,-0.0819539607501091,0.005925153558351021,1.4052913005167196,1.1773780997657346,1.3475707199126765,2.8806161707395574,3.1894815442344093,3.558987839593713,-4.119155002532245,-3.3734440876295118,-2.7563948449140296,252.8196514213947,178.295762110797,232.4456899341644,2.194201075024318,1.5806365914841791,2.1236659355216965,146.8179951579773,122.20876383452902,141.9350954740753,1.0828317890867947,0.6042904514624894,1.1205237677632571,0.15702631170390954,0.11737170484561935,0.1361896035588567,0.7752444849985447,-0.6055793647459717,-0.19077238978764982,0.8371381901260737,0.7190572146451785,0.26184551321507776,1.9767165210851143,0.7942678069408209,0.09071266208322509,-0.49004241288861483,-1.401571445157078,-0.5865628090668197,166.6309581936918,113.12251455224524,13.43451871950827,1.7952523418158288,1.2355152906431957,0.5676965635770622,124.10326218961195,109.24950776312532,31.02467021728026,0.7804938742185357,0.5112575785965257,0.13024382362073558,0.061897337354100315,0.05708025682810189,0.01731330691802911,-7.83659390859375,5.6917586125,1.141690512328125,2.334650512432312,1.9240329088400179,1.9358360846822606,-3.5865142,14.580988,7.7790604,-18.550873,0.9888053,-3.5625722,8558.438029236368,4620.546398370215,646.5175773053442,2.506729,2.2819732999999998,2.47081604,1003.0840202999998,728.5451023999999,235.01873041,1.2749122999999996,0.9530417999999998,1.155202373,0.477177643625628,0.3713486467656168,0.30034918204144534,1.0,WALKING
-0.09486990581108377,0.016259556171312473,-0.13840606941801264,1.368323532771253,1.1873803614771052,1.4602666396942483,2.4647534296173417,2.81830122294052,3.558987839593713,-2.191199938327352,-2.2900303763094527,-3.7931706542132853,240.80762743861834,180.49747148651383,275.3964670791264,2.5236933770044336,1.9595122263349838,2.162877922827888,154.24666472199445,129.2791091943869,156.62292913095933,1.028802821083608,0.9749827366794825,1.1345687378782796,0.1380771454725882,0.12392899078464444,0.1488698178058347,-0.20353795947657222,0.29664338306009597,0.11116456491532804,0.6954206031498995,0.6175744738458295,0.0926837644757266,1.6753467823786383,0.8425838858258852,0.2846584222163326,-0.7275046649214385,-0.9386545697706186,0.009861354093950881,67.20480207785683,60.082627514789415,2.681323608346384,0.5337547990761047,0.7741177493533666,0.15617921822621555,79.02609470793672,82.2499318712601,14.229064309161991,0.19318011204279795,0.13774274579955748,0.04227152627589005,0.06358112800329857,0.044655683530134944,0.009536765812883582,-7.5117750828125,6.11491975546875,1.2778443680265625,1.8792734724030926,1.6659009596734884,1.8344945123551066,-3.8953662,11.147702,5.882853,-14.715363,2.906561,-2.777274,7674.679510891613,5141.436111777668,639.7768121290504,2.8467056,2.2532430000000003,2.482787046,961.5072105999999,782.7097287000001,236.71173020740002,1.3455411999999995,1.1001356500000004,1.200692185,0.391128500717009,0.3369610333451311,0.2708654511302366,1.0,WALKING
-0.09451366450135001,0.010819607923262642,-0.017793312250592698,1.204389752865864,1.0901304454735379,1.3000633636371706,2.7013590389497946,2.0942271413605047,2.3961670493229654,-2.191199938327352,-2.2619524336002312,-3.7931706542132853,186.81440122697867,152.12818586418524,216.38161298335248,1.6582861853487545,1.8236366195033833,1.6203434840190898,125.96556267265345,120.66469863131225,133.7442205536522,0.7216342871482442,0.9078756153372907,1.0079267466530621,0.1182756010303708,0.11569804935040956,0.12597080246593753,-0.28033884296251904,0.1933161971396598,0.07975504874602071,0.4581293992508783,0.5372018074578118,0.15492565519588233,0.6436423646042636,0.8425838858258852,0.2846584222163326,-0.7275046649214385,-0.9427408207552206,-0.3223901552987564,36.92446890643642,41.722487553597425,3.8864417841092562,0.6840763560704567,0.9136617174303766,0.16657892639668836,64.3153504945058,63.74046259343502,18.110899749896483,0.23181628058017323,0.7296311852877728,0.08594899038753072,0.03688434876618189,0.04777374823195601,0.013967331517877248,-7.399352795312501,6.1189015203125,1.8355998316249997,1.565720607108354,1.5380140625388787,1.7467206338297154,-3.8953662,10.312126,6.6011133,-13.422194,2.3127987,-2.777274,7321.843559554899,5095.224713196796,821.8188434570508,2.09732,1.982399,1.8076223,947.1171577999997,783.2193946,274.7005268748,0.9708490000000003,0.9959876500000004,0.8966284999999999,0.33688970457207973,0.31660722356623267,0.26296176077198186,1.0,WALKING
0.23805088379256098,0.20562289407756892,0.18143046638683188,1.225612160023985,1.0415093056036582,1.4790980969027645,3.2887841984855104,2.2075887481709477,3.357799658420414,-2.1276617945146112,-1.7347299265535572,-3.9545620630212754,199.52555392935403,144.25886825316468,284.2429688825242,1.765109889284071,1.6228818118268968,2.087163207919345,127.27723818101946,116.58590432810232,151.37024061314682,0.8856684054320221,0.8151803720928488,1.0249055550009407,0.1286286197914689,0.11897119245784958,0.1560438232234002,0.2263833288055505,-0.2606836968056274,-0.11541216555908074,0.4535523087333054,0.42066159387229074,0.16132265276517402,0.9052366523054388,0.8256934160845008,0.20077125598702766,-0.43329616782010527,-0.9427408207552206,-0.33602053817908256,32.89076586475436,31.348757291446322,5.036155680541392,0.9804638332420367,0.9013040728803123,0.3373513373806265,55.972069828873806,50.45059091121397,21.239978887086497,0.36193659002043554,0.3250493581347197,0.17506025975782558,0.024828946351692423,0.03484508587598115,0.013143726132124346,-7.335324285937499,6.1182678984375,2.0651135272234376,1.672022770277356,1.4681017116341235,1.851573672069683,-3.8187518,10.429441,7.1015015,-14.269741,2.3127987,-2.8514943,7245.138243096379,5067.331163232491,984.7064247581233,2.0781666000000003,1.8650832,2.1930886000000003,938.9215086,783.1382909999999,297.76237585140007,1.0235205,0.9445124999999996,1.1695675,0.35669523910365675,0.30903601303057776,0.2735170546514931,1.0,WALKING
-0.07880234269828768,0.005115628959329266,0.09384416294970632,1.5495539311230861,1.257764655212108,1.548822225890341,3.2887841984855104,2.2267093026733757,3.357799658420414,-3.8003498200472388,-2.542863799633988,-3.9545620630212754,308.1378809182399,202.4957564877417,308.18009783445,2.0394714316622204,1.8771713643280306,2.2216057823801667,157.36087545968695,133.01183409809724,157.7205414290829,1.0370065543119869,0.9706829604166507,0.860858766517493,0.16613226132216952,0.12926949023923662,0.14475253940749686,0.03689158086755708,0.17768789676699354,0.07399345170629634,0.49688296116007846,0.5818725991650077,0.4181190971255463,0.9052366523054388,0.9261296715861036,0.8107889110781498,-0.6237434283925646,-0.9427408207552206,-0.33602053817908256,31.776469226254765,47.37903492051456,23.078222115391235,0.7396778703788264,0.5554870987445779,0.8096226883210257,53.1197722937604,67.85859002553697,42.241876310999224,0.3881324696668199,0.3663560726797723,0.17086961833252917,0.03366229323072342,0.04852887177098916,0.032998020158694144,-6.603561344999999,6.6130820578125,1.75478150321875,2.378894492787263,1.8252271560904494,1.832191728575551,-0.01436521,10.937013,7.1015015,-14.269741,2.3918076,-2.8514943,6306.068664958945,6024.23148476053,823.8316357503129,2.6695354999999994,2.561796,2.4660278599999996,845.2558521599998,846.4745034000001,258.509140212,1.2880803500000004,1.2545613000000002,1.0522516199999998,0.38653196463795425,0.31122058469955693,0.2372763184571154,1.0,WALKING
-0.04759131341998087,0.0007704054688838224,-0.23831140027756556,1.5020657281580676,1.461875348993052,1.4937151170553096,3.566680151131856,4.111363814047355,3.3925146021946673,-3.8003498200472388,-2.542863799633988,-4.342008869955502,289.0836972569682,273.5462565783223,292.8610783259918,1.750949546886646,2.038384039126985,1.702502178681307,148.9274583921125,150.45805688957296,154.09220734737494,0.8421344232800899,1.03570328692126,0.6373497377829739,0.16308254784049978,0.16605384070995488,0.16554253494339422,-0.1592280645504645,0.2796492389090023,0.15704646579775894,0.24045185291211602,0.4147925320776167,0.4146487288400517,0.0952010192009366,0.9261296715861036,0.8107889110781498,-0.6237434283925646,-0.34074006078766406,-0.29426273276013215,10.645845773997692,32.03283731068735,25.164436575774406,0.34342696793685223,0.8007769460298287,0.7977051605034912,25.684664446184247,54.76834956612569,44.48522473187469,0.1360713170685484,0.3061230942305999,0.165518046653879,0.022651153836573942,0.037140118987042656,0.02845600723458878,-3.3404280817968743,8.46018528359375,0.9401590591953124,3.345536194734254,2.5480271205835723,1.9873042853461467,3.9863458,16.86775,6.2587423,-11.49965,2.3918076,-5.5596356,2860.937241591566,9992.598686715608,618.6595045301982,5.2723315,3.1364039999999997,2.28885689,466.1118653699999,1082.9037162999996,216.568711545,2.2014683699999997,1.5478513500000002,1.109712455,0.366563856578075,0.42495445586172165,0.297817137368241,1.0,WALKING
0.12054903068721856,-0.022751801312783135,-0.06379518183495747,1.2287881364383226,1.5986510663621567,1.6633654789565788,3.566680151131856,4.111363814047355,3.453762368128267,-2.9002960996676483,-2.752411196852119,-4.342008869955502,195.1299011905528,327.1939681848111,354.6693813516551,1.4967696503853514,2.303423945664111,2.2257301439603063,122.62196562463585,167.56641210162272,168.9037184923901,0.6171526903671053,1.1378530156410447,1.1331405650514053,0.11983412408304597,0.15928080229374203,0.17280328719404897,0.005320230488100048,0.1484202718365576,-0.03605257090690178,0.14402966418525923,0.28075509454290526,0.21406010437132605,0.21245048131230135,0.470450662198184,0.7897671207486174,-0.30567281831987947,-0.34074006078766406,-0.29426273276013215,2.6589246742739294,12.90905602609068,6.031554067514906,0.2545297289333693,0.5229976289495201,0.1763504671979792,15.736011027197689,37.97104178085274,19.974377826793905,0.117389296037369,0.16998067030339173,0.08832853847035471,0.012778838140984426,0.017988572208750296,0.022444261390084354,-1.018714114734375,9.6968792921875,0.7012392375390626,1.5718870313561497,2.12656909850145,2.124048456192392,3.9863458,16.86775,5.6769514,-4.3143516,5.51654,-5.5596356,449.10173272380047,12614.625809658373,640.4247440022591,1.85311205,2.9209260000000015,2.5426421500000003,190.250449134,1241.2005494,230.03549701300014,0.9002198,1.244984999999998,1.2713210750000001,0.22997169137701493,0.42904953951685265,0.31142199491389133,1.0,WALKING
-0.0037341196658188247,-0.04372975294178501,0.1964031701482546,1.2137557311501557,1.6974877282879384,1.5554489581088544,2.8114387263791887,3.529481595372067,3.453762368128267,-2.9002960996676483,-2.752411196852119,-3.942424813986379,188.57176557433957,369.07224050950333,314.6234453153542,1.6233025130784964,2.6241070565929707,1.9262312967682496,123.98316290928527,184.55678666981308,154.80676421907378,0.7090039291278172,1.0936315546421405,0.9282124745775623,0.12798350699895378,0.1633575611779479,0.14966914732974848,0.09193614486855145,-0.04010314637292366,-0.007692613551108763,0.1513444050944316,0.38068305443935463,0.05070387695229125,0.21245048131230135,0.470450662198184,0.06689872678392725,-0.20334089626382632,-0.6673697086385901,-0.14541200393056408,4.013745111894869,18.75556483664445,0.33664760847869324,0.10389439830014588,0.6568976156410125,0.03106103998707277,22.15137454277012,45.229413676395744,4.295604170827358,0.05382110446136418,0.3284217871037911,0.022456360335908254,0.011784556012997875,0.03169376546609873,0.004122025159625857,-1.5400515412734377,9.63086806015625,0.7759668464453124,1.5672428728371293,2.232613347904942,1.9297995840269166,3.7828386,16.027384,5.6769514,-4.620809,5.51654,-4.4699745,617.985148446396,12510.487290032783,553.7601256054716,2.2122424,3.3135749999999984,2.15238729,228.57204193700002,1232.7511117000001,208.00135982100005,1.1180922299999998,1.491587299999999,1.02112702,0.23510952503432764,0.43879061723455987,0.2676179227809992,1.0,WALKING
0.062045622016643515,0.08561399087212916,0.0636134441690756,1.2374056217445262,1.6012432097129659,1.6591615307012744,2.8114387263791887,3.4861050804172216,2.826120139074551,-3.2627698275528036,-2.9870262173485784,-3.998845217311537,196.48285848785778,329.12762522687154,352.87854787047,1.8566355115126587,2.2172384635742084,1.9548242824807827,133.326521311223,165.1314425137092,174.69244371074626,0.8078688111397163,1.0314791798405913,1.0171092307500063,0.13735442740666165,0.1693038098462687,0.19202062718500973,0.22595478999889945,-0.6963560186840443,-0.029966900438858312,0.08592207960384206,0.6293159336119837,0.04417788641040371,0.40219991338576505,0.12126713761708702,0.04837943655493488,0.09632263222734808,-2.004759997209952,-0.09818951697673103,7.480085873522654,112.76163187909319,0.36476169850918116,0.15740912030407767,0.7503713609268526,0.08579323453964638,28.92221311985917,91.48764228825412,4.7643248661478514,0.06280112412469449,0.32593165509074945,0.01527790898869806,0.00959516590331573,0.06735607202402688,0.003977585918005897,-2.3353567169609377,9.662890528125,-0.024435352070312513,1.7949917568057623,2.1937060623450773,2.025426170269286,1.3862427,16.027384,4.5561657,-8.0089035,5.5117517,-5.777508,1110.5134595142663,12567.52635475167,525.1773769782411,2.5546132999999998,3.2513260000000006,1.9369092,313.424945279,1236.8499876000005,191.00552197100012,1.2557587000000001,1.6915037999999996,1.01035315,0.2913558908689453,0.46919026633894745,0.28737503128627484,1.0,WALKING
-0.03742560512290004,-0.11639618064879234,-0.019579890237719097,1.409405958605625,1.231231886695255,1.8777499926667987,3.348121346380575,3.28970288585459,3.3726012433735946,-3.2627698275528036,-2.9870262173485784,-3.998845217311537,254.44170650519743,195.77344379965226,451.37003610392105,2.1837365722143978,1.3409169324407362,2.676333709002501,155.7734149195211,124.68387101685741,203.92957459871127,1.164572509161347,0.7121129735224114,1.2682114497302337,0.1459409417010521,0.13453321924208078,0.17853250022252487,0.22732377160068878,-1.068726407285956,0.002912163092097707,0.1514723899156553,0.7892703983515296,0.14720351901636172,0.42856536253982025,0.3233250368072284,0.25946850984914455,-0.06141088058483142,-2.004759997209952,-0.2255713844182637,9.55135770131487,225.9358586040741,2.7747016581984445,0.21140829765072697,1.5603662749197211,0.23887199977688467,30.20283861541511,142.76258184211105,15.887753001339945,0.11117696935806176,0.8674155094026574,0.0802063911747963,0.01305022422941883,0.06864527778546659,0.011091987682228457,-2.8741152345625003,9.325771025,-0.6719967711718751,1.9462116374129321,1.999222305927542,2.224410068750054,2.5378537,15.251663,3.9624038,-8.0089035,4.039018,-5.89243,1542.1795992506595,11643.76256502372,691.1462162460214,2.9783869999999997,2.5498250000000002,3.2728735999999996,380.930360706,1193.6986911999995,237.31955817,1.4377182,1.224634,1.5490485,0.32828163705475744,0.4448907204979393,0.3008509859093955,1.0,WALKING
-0.11273808596580903,0.017165270841133243,-0.07056245157037172,1.6063627108704452,1.3038786494987245,1.858962147078729,3.348121346380575,4.660833204844408,3.3726012433735946,-2.8067985838289347,-2.6313302744325675,-4.197098398920881,331.9182124674916,217.65045493013332,442.97207345192686,3.0656548580719987,1.7015105070370993,2.302405620483628,182.10166643118018,134.38945295749753,187.42914365403826,1.5511014352256818,0.8452802106152575,1.0563018272931455,0.15387080655372815,0.13240753519812806,0.1858207971408733,0.0817636256395845,-0.2254379560757658,0.014560045216322088,0.17675910401200723,1.084282595443575,0.1769762139825352,0.42856536253982025,0.8191064021407324,0.25946850984914455,-0.15101193074764824,-1.969912949746838,-0.3296570906456989,4.854921130093777,156.99085040914878,4.036169629733563,0.2413303181793759,2.2830337830560596,0.2947778948508355,19.076643235992876,120.44490732933349,19.16283941890783,0.1016945106017833,0.4952123459906061,0.12989783304935362,0.01624199449011784,0.07384080517631962,0.012428338482040474,-3.1956443713281253,9.34668291171875,-0.25129063912500005,2.154834283858653,2.0287391599813436,2.441589719370015,2.5378537,16.22371,4.8243165,-8.111855,4.039018,-6.052841,1901.4980785784012,11708.961796026508,771.1369399097857,3.4766803000000004,2.518701,3.3159694,423.98229780999986,1196.3754126999997,248.40949971600006,1.65349565,1.1384433,1.686715052,0.3519099824431998,0.4408198676088018,0.3482752936580944,1.0,WALKING
-0.05023401859838527,0.0977928707955316,-0.14649015083993333,1.6306930643844257,1.6435106092406455,1.847692503219274,2.6879277522208564,4.660833204844408,3.3594712947392606,-2.8067985838289347,-3.052177307025149,-5.041577077791692,340.69546583756943,346.9683927379186,439.734649695464,3.089523642491995,2.2411617130191317,2.256936302795112,186.9773840206192,172.96465015486316,182.51064763100095,1.5220697306668907,1.1360056086224244,1.1113040264801537,0.16320313082891263,0.17947945384974312,0.19732770017386186,-0.08329120831412756,0.4877482336951032,-0.06976909602410777,0.11297026036872349,0.24524651795767644,0.11460456366233296,0.17255367562229745,0.8191064021407324,0.11996708146480156,-0.1772348586624622,0.1386319800423505,-0.3296570906456989,2.5215622541061857,38.14965683751143,2.304247394848627,0.0926672432400626,0.5113397657218044,0.125720757788439,17.266871425614806,62.43177391297322,13.799586120370863,0.036376536463456316,0.19550434831581973,0.047499842425936155,0.011003291170844193,0.024716225111387595,0.010875630425290056,-3.6182840812500006,9.2870172515625,0.2722235449921874,2.1267588527306422,2.3858985699588073,2.3854670685806423,1.4915876,16.22371,5.918766,-8.111855,4.831499,-6.052841,2254.7306125177993,11768.473781369723,737.8635255975473,3.5006222000000005,3.22499,2.7413609599999997,469.40838239999994,1188.7382081999995,240.06780099700006,1.7061679500000002,1.5957356999999996,1.338358725,0.35739519900514527,0.4998215149767506,0.36185982670778855,1.0,WALKING
0.17021760517644474,-0.055734771003087824,-0.004385730519739478,1.7311457729259456,1.8816080685858028,1.6702633242743663,4.008131300965553,4.287900635947718,3.3594712947392606,-3.1853608729870357,-3.5830444933098864,-5.041577077791692,387.3074841896158,453.5750769236431,357.0942473021758,2.7598221489756765,2.693009825184925,2.288913354475727,191.73941736190258,204.36139957282023,171.03156820818677,1.3917260455975333,1.4389733314207254,1.0873133179986612,0.1870377397528856,0.1890071163912691,0.18327094758948267,-0.17026324099089724,0.17626496404246125,-0.12045634552699852,0.10220912596854975,0.2636386747838561,0.05222758228614747,0.28761741197853524,0.5591616623645619,0.002475421704652301,-0.2789196050386583,-0.3441669758499053,-0.23032578179396185,5.047843412989342,12.873560114006798,2.206393795734524,0.0599244041573537,0.26652201913045626,0.05535455202947853,24.669868966620186,36.8106527848735,15.443166444502332,0.010642677678630641,0.17509125013127,0.03287155484237782,0.014940901219278501,0.028001607718782025,0.007064387068077215,-4.106065247265625,8.73096851953125,0.5959177388828125,2.0875010211312492,2.735915198390468,2.185786385621935,-0.02873042,16.336237,6.998551,-8.162133,2.8993783,-4.8626237,2715.831337987397,10715.525537514199,656.9958496109318,3.2420483,3.775655999999999,2.6479872,525.57635165,1117.5639705,232.58053453899998,1.6126444500000001,1.899799199999999,1.27012405,0.35082528613669806,0.5372456920510842,0.30562593352461737,1.0,WALKING
0.03089306561492848,-0.014079052727054009,0.23409315466909733,1.6896977973472946,1.9110551889619083,1.5283044335098197,4.008131300965553,4.287900635947718,4.807248097134192,-3.1853608729870357,-3.627545161057104,-4.157316284452879,365.5722275665138,467.4982598379424,305.98579795823366,2.3792421789463587,2.6232677729323637,2.247573155390034,180.82603143657028,204.02717395368094,158.40448664918048,1.2712509849761533,1.34355099564717,1.1231514292317581,0.17388827816084182,0.17929094086209685,0.17392606828599755,-0.026182826249179524,0.10831325811481347,-0.1145512562514216,0.2093097632000878,0.2874101032272183,0.06608153058592718,0.38313189203486525,0.5591616623645619,0.002475421704652301,-0.2789196050386583,-0.3441669758499053,-0.23032578179396185,5.695503022242759,12.075050153027389,2.238561151149783,0.3665772169074795,0.48090791350812157,0.09263026365136456,24.3141433563971,36.05267920347144,14.70711839086568,0.16850954455904354,0.23343520145435026,0.047915492133531995,0.014657511583941716,0.026284353891278447,0.00797100068197468,-4.987701974375001,8.323280903125,1.039137305296875,2.1444153473571808,2.743217370871731,2.1555163619167192,-0.1604115,16.336237,6.998551,-9.447819,2.8993783,-4.8626237,3772.8880853971564,9830.68755663075,732.9353120960433,3.2875383,4.031835999999999,2.3989901099999997,638.4258527200001,1065.3799556000004,234.00179201600005,1.6376344499999997,1.9213468999999996,1.2210428999999998,0.3876618420189255,0.5268806034868332,0.33592897993851634,1.0,WALKING
-0.12745589220798562,-0.038352119259011934,-0.07029725692653296,1.7926954728561135,1.7942411375148928,1.8257546854152114,3.763897266443036,4.117062299539834,4.807248097134192,-3.8145905152366133,-3.627545161057104,-5.594993727803354,413.4402640457394,412.25883450910624,427.30520008281496,2.747548869590708,2.6630375919343754,2.4709731200267893,194.60507640213913,191.46177762766672,184.34314214256798,1.3844676096418587,1.327753140888241,1.2548860996977182,0.17277088310334665,0.17630128925036867,0.18000528063891147,-0.09438830753113285,0.3704362855578712,0.01159743085922614,0.28487922963692514,0.29355478238359234,0.12185855639396641,0.38313189203486525,0.7129084700803613,0.1987474122146399,-0.7223137313771109,-0.27110067251329295,-0.1810851952390554,11.528361993871316,28.594873845528415,1.9179530456263711,0.33576071758012,0.33284732663693295,0.21736999290788417,30.168270840701755,55.35568932874437,13.83137200972891,0.17590815669096693,0.2582435912556518,0.12478987792076773,0.022078325485435698,0.02987827887676807,0.008266760205572642,-5.890556858593749,7.81830076484375,1.049630634859375,2.2373252818920037,2.558027728737368,2.203861204623471,-1.0295067,14.63366,6.857293,-11.300931,3.0885203,-4.697424,5082.1484187288315,8661.674586949839,762.717270896603,3.3449985999999994,3.6296090000000003,2.7509377600000002,753.9912778999999,1000.7424978999998,241.2825587439999,1.6724992999999997,1.8339583000000008,1.3180080349999999,0.3828895695138783,0.463159554328005,0.31793805914487394,1.0,WALKING
-0.03672478266958553,0.04371557424138348,-0.20774765589124558,1.7609885765443773,1.7053864146570747,1.9552586623036947,3.763897266443036,4.117062299539834,3.851131640739223,-3.8145905152366133,-2.8661961608608504,-5.594993727803354,397.110972976886,372.5124959652051,494.87302720536854,2.723753757872575,2.9553649340904116,2.9857860712249735,189.74991701342591,184.30272832102506,203.2474305766748,1.22449660332938,1.2395698195368916,1.3989760793890866,0.1752318364272084,0.14710309003009797,0.2047539639653631,-0.0586720550823842,0.12609778854032322,0.05747480661199247,0.3493738656678333,0.5594266839089308,0.1105740179016672,0.5734766460150116,0.7129084700803613,0.1987474122146399,-0.7223137313771109,-0.7725882244378629,-0.19048823844023768,16.064577031587273,42.09393496884512,1.9878357542405292,0.5586410437131287,1.1382179487791475,0.1705640456131633,38.61275179742482,70.69027171637299,14.458401284304852,0.2011007142212429,0.35769789446260924,0.08343215238395078,0.022832791546592273,0.037943446410458555,0.009375083147436222,-6.429235884375,7.2962034203125015,1.0327028976250001,2.1066530029165964,2.2897001430249952,2.259170839117399,-1.5729905,13.800478,7.618649,-11.300931,3.1866825,-4.697424,5858.951799248988,7485.095820230209,789.8020038504299,3.3138746999999995,3.03106,2.98078126,822.9421932,933.9140378000001,248.73571066800005,1.637634499999999,1.5071494999999997,1.5334862500000002,0.37674379306656736,0.4077769692587614,0.31966448179189466,1.0,WALKING
0.04626815093795976,0.12241812973024654,0.028373276033552077,1.3848124770412105,1.4449124548180667,1.657646115143747,2.5394244685141674,3.3565645456179727,3.851131640739223,-3.2471878259545264,-2.6960369242269806,-4.003246132401095,245.74033131010955,269.1530496736029,351.82024778803594,2.3430712170679326,2.321252499056013,2.3560783394061766,154.66608161090915,157.60666830808282,168.90301965306975,1.1218381671184345,1.084092797520115,1.0434825096650953,0.1474198197987317,0.1655258235556039,0.1717905637733283,0.22432194405486813,-0.26945326793591085,-0.032840737372314056,0.19835963022467745,0.39146104339994736,0.115274084465409,0.5734766460150116,0.6865863759325006,0.16603310795323545,-0.20049926744691404,-0.7725882244378629,-0.19048823844023768,11.477360318390575,28.908391948943038,1.8389284583034295,0.18648554280801724,0.5746430143753737,0.2169825914696228,34.210633571367374,52.00617016884848,13.987610471478186,0.10252646815633054,0.3200181622617013,0.11025835856998895,0.0169606507010755,0.0292852431289031,0.00871425528371276,-6.72678792890625,7.00839886484375,1.1580641599765626,1.89722057829937,2.007233097090044,2.1869625149939655,-2.705448,12.287342,8.523658,-16.922815,3.1771057,-3.4955344,6252.687585689784,6802.769837413999,783.8614579982024,2.7030535,2.7605143000000005,2.4492682500000003,861.0288548999996,897.0750546999999,247.74481108700004,1.3874398500000003,1.3670891500000009,1.1552023325,0.3819425305523932,0.4045678128939987,0.33530669360346854,1.0,WALKING
-0.030895542859187226,-0.08245219843793863,0.047160827366878114,1.2612451016772304,1.2740681267545995,1.3103572270543473,2.592696613642807,2.0534561835319414,2.880633814767442,-3.2471878259545264,-2.68802849772859,-2.5131043824721058,203.7367988573915,208.64613844982054,220.06530638483036,1.874216292096298,2.0876621142971885,2.0806791017414534,136.44681000872745,141.63286185113347,142.38959418979945,1.0076486704539387,0.9924102918018587,1.0017139895822722,0.13181765668927953,0.13474394491770017,0.12290717822743552,-0.33727066014111773,0.32223332857847753,0.14077389261715195,0.7148687073909464,0.7467964052009431,0.2615452679198204,0.5734766460150116,1.423562904535514,0.6715037764442877,-1.661949355140815,-0.7725882244378629,-0.19048823844023768,79.97296217584989,84.67701617508052,11.292571649771013,0.9386538880815167,1.5114209051087593,0.3524062501346561,74.99175816157393,78.25282457471471,30.187475641447577,0.37254092387240045,0.6060582831260307,0.20775783706756495,0.05918765016179426,0.06547153818035498,0.02318007874648905,-6.93333927734375,6.73210470859375,1.356976950875,1.848142713609842,1.7833358045612202,1.8195212885253869,-3.4524388,11.837233,8.523658,-16.922815,3.1771057,-3.4955344,6590.313603152218,6208.194611110418,659.4616530691965,2.530671000000001,2.6384095000000007,2.1667526,887.4674275,861.7094026999998,231.82905500799995,1.2844894499999997,1.2689272000000003,1.1396400299999998,0.37133934426898413,0.35728191575385754,0.287102597693366,1.0,WALKING
-0.049467092294489846,-0.05704930775264065,-0.0029150950724379926,1.0483070070397063,1.223054822481174,1.4199070238719147,2.592696613642807,2.0005249175059445,2.3925513020795623,-2.350964450520827,-2.690434245688438,-3.8363340649113367,140.97850550126313,191.88706845561754,258.06649014017006,1.311046855865328,1.8680870096840358,2.1843142181321884,107.01334969043512,132.5976780528109,153.62371829740533,0.6588851993964071,1.0039214695824472,1.0868612437866194,0.10569858003120164,0.1287549156896013,0.1294704159930261,-0.7238058601827959,0.7751083923363484,0.26595444032442994,0.5198362947635242,0.6270886661147557,0.2115759333310873,0.05667871344016967,1.423562904535514,0.6715037764442877,-1.661949355140815,-0.19266510524769145,-0.03081324806344402,101.64796116331858,127.23625152509717,14.783505906329767,0.8536165470233873,1.369018994439664,0.27108861684731156,93.69031143522803,105.3028345157168,35.127898368650925,0.26110358892462426,0.36617430390801586,0.1647825207403959,0.043544887758345724,0.0470146442534409,0.017916238238990963,-6.97933648359375,6.631073616406249,1.699848127828125,1.5727012464166894,1.6514496742735418,1.6833746356919135,-2.5330653,11.12376,6.5795655,-12.560282,3.4380736,-2.896984,6551.619451098034,5977.398186605728,732.5739291867735,1.9632455999999996,2.1595696999999996,2.51391166,893.3550698999999,848.7774228999997,258.7177338780001,0.9672575500000002,1.0809822500000004,1.201889225,0.33895235092577114,0.324857026554643,0.2560682252522649,1.0,WALKING
0.11670259709940121,-0.0250426946077294,0.21656553288906222,1.4257949201370625,1.5351265380066572,1.698269527363175,3.3379465949439653,3.6784657710059507,3.8777521199904355,-2.633616687522494,-3.1344371808945786,-4.233274485013697,261.9533632586749,301.72679990342675,375.17056225355077,1.8341682531654717,2.074275858986076,2.1828755052807356,145.21651438520172,160.37272124791042,174.82149316512246,0.9773591315104726,1.037137929493038,1.1804067822939601,0.14356075857358402,0.15157032928594155,0.15932716050655316,-0.5237020126569678,0.5264892039366679,0.16242303986909837,0.3066641571034972,0.502276953324147,0.15982360318303704,0.05667871344016967,1.3522395102453881,0.4260700690764415,-1.2294179746663196,-0.15518213483123283,-0.03081324806344402,47.14325802405859,67.7725465219142,6.646377985885131,0.27430038526774986,1.074168084821774,0.2902347311101041,68.1573246665976,72.35039860827996,21.875879110368437,0.1419402630147747,0.5074269154304936,0.13960946921722203,0.03973297545045108,0.04103738843976184,0.013681464530758781,-6.8889366296875,6.469761971875,2.133855632820312,2.04316849886396,1.993787107414537,1.9658330644062292,-2.5330653,12.967296,7.1230493,-12.560282,2.4229321,-3.1196449,6608.8941315328175,5866.624896308778,1077.4834558504651,2.7892444999999997,2.4564510000000004,2.3942015999999997,881.7838885999995,828.1295324000004,313.6960863050001,1.3000515999999998,1.2425907,1.227028425,0.4134274348728491,0.3640816177241329,0.27857795496598764,1.0,WALKING
0.09093653189850603,0.019280656803561502,0.11673116352947191,1.5061858882545338,1.6783299156990745,1.7284615186038021,3.3379465949439653,3.6784657710059507,3.8777521199904355,-2.633616687522494,-3.1344371808945786,-4.233274485013697,291.4387689997858,360.5968703561266,384.15428938663774,2.011031181374636,2.552532467778195,2.321185347669533,155.4651590214706,179.91324062080642,173.08416405358784,1.1201600456360317,1.3157343117778804,1.2869756058729975,0.15397675669769847,0.15793160404001266,0.1715807477734663,-0.07845716899750166,0.008005713383082274,0.04196022745023207,0.5988769929000365,0.7073516099309161,0.23620325557404015,1.4638225116160801,0.8266393537309774,0.30560770054414266,-0.7109484148831203,-1.1384293832067705,-0.5262484352460501,46.69557503898793,64.05253011438471,7.366737744825667,0.6689573477757083,1.2026206731329654,0.15418511309192845,59.47240333952852,80.30454110698417,24.540828405825923,0.5032931947354515,0.5889711196329618,0.09706047349695873,0.046912602208185085,0.04522107643067418,0.018556804674323267,-7.169612342968749,6.247077803906251,1.9305963344453125,2.228807447806904,2.319502847228928,2.0175112198015865,-2.6431987,12.967296,7.1230493,-14.142849,0.2873042,-3.1196449,7215.478244844721,5683.977541934237,998.0868772606673,3.0047230000000003,2.928408,2.4684220999999997,917.7103799000002,799.6259589000003,289.6229879829998,1.5023617500000004,1.4823097500000002,1.3239935200000001,0.43024088631193635,0.4170467677262175,0.2925954600183813,1.0,WALKING
-0.05401260221790091,-0.030599543833080972,-0.15572178916221222,1.3516359704147975,1.3478305242338322,1.5752749701892776,3.1974065152927658,3.3463260684403835,5.019730824037472,-2.5899179320792642,-3.1855294229028015,-4.588494193381132,234.21915618784018,232.65068212982257,320.734784937563,1.9234037482103243,1.9648382996689095,1.7852526629326504,141.63436828331857,140.31262914220974,155.67673157677692,0.9617018741051622,0.9824191498344548,1.0712916894599296,0.1447042319451871,0.1489870818370136,0.17268999290053677,0.5230501176177157,-0.33999312343505517,-0.14646644540373144,0.4835349728111148,0.6259135359118686,0.23705437430699178,1.4638225116160801,0.8266393537309774,0.19510438128697194,-0.12929420034429628,-1.1384293832067705,-0.5262484352460501,64.94559942033295,64.94247403786544,9.938841088932303,0.7981613479841552,1.194591002354408,0.4728197340430748,69.44921261857597,81.01251429488542,30.221806494509863,0.3199479695545176,0.47474750112989966,0.19840529753671984,0.03620530796851989,0.053173166982575924,0.018280488110056035,-7.517739573437501,6.049780596875,1.2938158453671875,1.9093754148095994,2.0477368543672596,1.8509040538612649,-3.7110126,11.722311,7.621043,-14.142849,0.2873042,-3.53863,7700.75171439457,5221.51315136757,652.7750730653793,2.3822313,2.5860369999999993,1.99437,962.2706654,774.3719163999998,223.418821719,1.2605469999999994,1.2955627,1.0510545785,0.39796619706151964,0.3913955793007623,0.26872621226494264,1.0,WALKING
-0.08559078320106184,0.0879866862381182,-0.0980527746586135,1.6248219011427765,1.2612060370643816,1.5715259704499824,3.62456191453329,2.9200966331515996,5.019730824037472,-2.7873828754995724,-3.1855294229028015,-4.588494193381132,338.86361505308116,204.59293758499945,317.3514524693776,2.3439360462482774,1.6792697615029057,1.9369864957735154,177.24686788818485,129.76370286997903,157.94252496397027,1.1882923354861132,0.8136454134241542,0.9977728670913023,0.1581928508274646,0.13428096828114505,0.17394622731463993,0.5465087013933944,-0.2360244741300243,-0.22796270180651962,0.3086654166846152,0.3543622656427416,0.103382630884129,1.4638225116160801,0.27702946641257803,-0.10994909703889753,0.24937380465388823,-0.91756153594183,-0.5262484352460501,50.425100819939985,23.20386146557586,8.019835108281887,0.2104560326073539,0.4453358877463083,0.08175017697347423,69.95311377835444,43.41932409415347,29.17922583123452,0.08344605108326397,0.25818415806547473,0.026553772872068365,0.03490607011579809,0.03845556898269358,0.012363970040650207,-7.63886420703125,6.10996297421875,1.1546739194453124,2.1230386589944374,1.8290349849912544,2.104060198255924,-3.5745432,11.061511,7.621043,-12.651261,1.1563994,-4.465186,8046.021058694151,5206.658114898688,737.3236708008908,2.8491003,2.5501243000000002,2.03267738,977.7746185,782.0752607,232.52427094099983,1.4317327,1.27027345,1.17555315,0.4181112185890238,0.36178497783959285,0.3118957220360969,1.0,WALKING
0.03621762944012788,0.06263520702602071,-0.056325006670622575,1.9399438673759133,1.6612107048839129,1.5338796349360075,3.62456191453329,4.023901175461928,3.9886925534949027,-5.885614647857243,-3.863779981604211,-3.0775962187975887,481.8808224322147,353.7336544230525,301.5627828285268,2.5544352620216886,2.651249791504344,2.512970112524596,204.18341948742685,179.00130602750923,166.88697164260697,1.3051962478136878,1.416863770876799,1.174552173217411,0.18996740638612683,0.18375254652123513,0.17204231552052676,0.76858719170795,-0.7007481080665559,-0.30745125004237056,0.41224032481921113,0.6512425108815345,0.1257368380720987,1.4655282694872738,0.24880018929457615,-0.16959965366166815,0.24937380465388823,-1.5092829369264444,-0.584037138563071,97.36554965306391,117.14108402408218,14.123011020926153,0.7677162515229285,1.266894725383061,0.24142960745024916,98.37916053861751,97.87202548978418,39.35376000542341,0.2606650195602663,0.6486538847304694,0.06557990781168432,0.038055314047821386,0.05647206862447825,0.017018402168550564,-7.67716910625,6.006439493749999,0.8707108487421874,2.511400302085267,2.3807846624900835,2.3144764314024853,-3.3135753,11.547534,6.98658,-15.574881,1.2018893,-5.291485,8351.495291298994,5343.4177281571565,782.7121323052703,3.7397427999999993,3.2851435999999996,2.9951464,982.6776456000001,768.8242552000002,257.22495227099995,1.6986860000000004,1.6485577,1.42933845,0.4872872210385275,0.4465103947056703,0.3504015310350578,1.0,WALKING
0.16155222821044501,-0.024928397962758517,0.044984007458573005,2.0284382696092726,1.7175748116455782,1.8320058566300916,4.24871031037461,4.149247025631404,4.102728175404707,-5.885614647857243,-3.863779981604211,-3.519245041810541,530.0045998150681,377.68763630391464,429.85843451571066,2.3580280022202977,2.398067119408915,2.7719020498158535,212.800300766589,178.37336427760408,199.65818419203552,1.2908606033153607,1.171883078232248,1.3859510249079268,0.204228507603053,0.19212037796811593,0.19742775252754546,0.5539498105077403,-0.7525850657082107,-0.3536618436352327,0.8269600904761885,0.7662330864874315,0.21289930015830405,1.4655282694872738,0.5925042915047709,0.09503488773668006,-1.153688065292534,-1.5092829369264444,-0.6923755955680422,126.81259312664919,147.6476702662512,21.81155989137499,1.2091769448096803,1.623993068891016,0.32422099941757526,118.42180046158612,124.43069453438912,46.789274189096695,0.42472282019181395,0.43981459451067506,0.14295381123670653,0.06375929264691337,0.055581635126866175,0.021825810214473964,-7.624096867968751,5.939628651562501,0.652555572421875,2.6615483602475187,2.5617902911795127,2.455054773307463,-2.0757728,12.23467,7.6713214,-15.574881,1.2018893,-5.291485,8346.968668941714,5355.7706258488015,825.9997075249411,3.9911339999999997,3.2061352999999997,3.2824505999999998,975.8843991000003,760.2724673999998,262.15910009000004,1.9333180000000003,1.5599720000000001,1.71903685,0.5056338598898509,0.47792043627832687,0.371883260090442,1.0,WALKING
-0.10138720380744959,0.04767636317328521,-0.18231093706145374,1.978440966499204,1.7316988073550064,2.1995644782906747,4.24871031037461,4.149247025631404,4.2301944754295056,-5.113758531802879,-4.059059858612546,-5.221856455762746,502.3370269463293,384.1348857600234,623.529110007085,2.5667530991284275,2.205847458959556,2.8657497111995784,203.876709198699,173.77006798519585,236.04726903353833,1.3179368588460507,0.9980054230854409,1.470501453318314,0.19308369713314574,0.18833594036315646,0.2340105006696025,-0.4193427363835558,-0.03217724463087085,-0.0700373505403881,0.7238334270748675,0.5902502297258737,0.3177216307764878,0.970253503552584,0.6928064074204074,0.2781145718022704,-1.4137635644726851,-1.4536286027750396,-0.6923755955680422,89.57224457070018,44.72713072172564,13.549089937150482,0.9807764965102278,0.5830225779335865,0.46837466358290725,99.10110526267516,57.20564803752481,32.94454874286767,0.34494181136693824,0.4189178151027758,0.24962374061724593,0.07131470946587462,0.05804946183616483,0.025929802358375734,-7.74452235859375,6.05429548828125,0.7956324998726562,2.6027375768665104,2.487799064971035,2.6032854112975183,-1.9009962,13.934553,7.6713214,-13.391069,0.6655881,-5.624279,8544.239290469308,5483.985670027962,948.4961289635964,3.5170819999999994,2.9140429999999995,3.2561142,991.2988619000004,774.9498225,273.33403609970003,1.7585409999999997,1.4881457999999999,1.61608617,0.4838469214672531,0.464033197971689,0.38324778821421523,1.0,WALKING
-0.04779717732664493,-0.18725514947143004,-0.015672178799728514,1.793420132436221,1.8024456667942763,2.233742438008914,4.150223684854635,3.8950145420746445,4.699678440319488,-5.113758531802879,-4.059059858612546,-5.221856455762746,411.985963723257,420.3359837118757,638.7009147584434,2.4274651669219116,2.6385594709009474,2.602010670847471,177.22652551692238,194.12311346353428,230.47626049051095,1.22104162184762,1.2394445755331733,1.3139469144148799,0.1811330557092375,0.18385232760436293,0.21435279908469307,-0.6587715606651878,0.31651210730612317,0.21395774502957068,0.5775717047310581,0.3464214504733646,0.21872821728138186,0.08914050679161564,0.9215262195247869,0.4889884570427789,-1.853370991206698,-0.14867250027774173,-0.26500994257817395,98.24883753564015,28.184030133687372,11.983353560733475,0.8532995211631943,0.6560395787749229,0.29905915761746504,86.79378084321321,46.872903028507224,34.15507411530202,0.5131370523094242,0.3129858992064528,0.16066736719987265,0.0560277279189794,0.030562315820405965,0.019703122111364577,-7.579439322656251,5.77662418359375,1.5291163019664062,2.2630762976074026,2.333278705693556,2.765330418505481,-1.9009962,13.934553,7.1757216,-13.391069,0.6655881,-8.992921,8008.885091151395,4968.1377890461645,1278.1118705217427,3.1148569999999998,3.1893759,2.94965649,970.1682332999992,739.4078954999998,317.8760655997002,1.5370774000000007,1.5577276499999997,1.4221558499999998,0.43261453305525893,0.42678087559778566,0.4186576835908051,1.0,WALKING
0.34527732414744705,0.3497243914834791,0.305128603151131,1.4637623955841739,1.7132205208965743,1.8406376011362953,3.589958655523418,4.728831396173756,4.699678440319488,-3.638973263367527,-2.8525597982131883,-4.020140390374418,289.51254800598286,391.3512580121112,445.5744311267503,1.819218805167572,2.356394987067419,1.9775102426193296,146.80963960497883,176.18542686915737,179.0987999298216,0.951652613452131,1.1349259763880868,1.2029283256862306,0.1713498552409154,0.18131729420184933,0.17431896818914178,-0.0953942037288859,0.3403763084393009,0.10950786803305504,0.6614751461190563,0.290534109217374,0.27267849512998643,0.7139622542765012,0.9215262195247869,0.4889884570427789,-1.853370991206698,-0.14867250027774173,-0.26500994257817395,57.17112614890171,25.634060795583885,11.05222846303992,0.4247925758855293,0.360831312175278,0.5137601022106355,53.6453317278847,48.29417585745093,31.68167811968842,0.21655446746530133,0.15010026761728174,0.23683803901522765,0.06676383745477782,0.03345759616667991,0.01698004618382618,-7.28574517421875,6.2263272453125005,1.7779636402734373,1.93720359477965,2.0168198096841268,2.4150855806599494,-2.9472623,11.760618,7.1757216,-14.969148,1.5011644,-8.992921,7274.859585443712,5482.843278138248,1151.2055127098854,2.5857374999999996,2.6671404,2.31040486,932.5753822999999,796.9698874000001,302.21678903500003,1.2533645500000006,1.3003504999999995,1.1611878500000001,0.4144533390355728,0.3797348407975252,0.35929390437553665,1.0,WALKING
-0.011270655346407144,0.24448558935251366,-0.4830846193114299,2.4956070096242837,2.8197797170103063,2.137492778099544,3.7070872087790625,4.728831396173756,5.759390884434783,-8.147615276889628,-8.393047219742574,-4.020140390374418,797.2072158921981,1025.399149550563,614.6875041079008,2.636853762216167,2.3755110566785973,2.897634418447595,238.19010567695724,269.27705259926455,231.02061137782968,1.4232508941361552,1.1771655464640767,1.585429532192037,0.22393541801639993,0.21912439613304363,0.20181229853799404,0.21596279998718207,-0.025082192705754146,0.4124946996379246,0.2789263845111541,0.2807208001718214,0.6266491022041353,0.7139622542765012,0.40898520010403816,1.6420901890025354,-0.7953960048074592,-0.3838508999827292,-0.26500994257817395,15.928301946210288,10.167460357124641,72.04364473889672,0.3847995792666177,0.5967806491182961,0.7636373636186659,33.4162475026074,32.673565841361984,63.69550981359471,0.19095693503239336,0.2737337532870214,0.21356475399407343,0.029279526581224312,0.020350146342306082,0.04239594199020309,-5.65268215934375,6.49446148996875,1.0832663733726562,4.066724359831885,3.365937958449039,2.218929186760482,3.3279405,12.94096,7.582736,-14.969148,-5.0137577,-3.4763808,6206.856014516886,6848.968753256348,780.4304347567975,5.3776767,3.782838699999999,2.94247383,779.2037184960002,858.7292211319999,233.29610116370003,2.2337904999999996,1.909376,1.51074135,0.5045797181036824,0.44402602477636455,0.2841673139945959,4.0,SITTING
-0.2475497913019376,-0.40154623681736307,0.10896718199846045,2.5901406361890844,3.0646943382543705,2.6868274338030522,3.7070872087790625,4.619720544897817,7.384309548507135,-8.147615276889628,-8.393047219742574,-3.5933596249805553,866.574005044688,1222.8596182055148,925.5571847410407,3.5273916474169615,4.482711029863593,3.8233490820023763,263.28343843292924,307.86304543619764,275.2830133570306,1.729044078499068,1.8121701765544391,1.6714603875152667,0.22806898758390498,0.2548647058038831,0.22604500981816927,0.014515869529770364,-0.17817710223258748,0.35167024075114717,0.4005081064163498,0.13617033585855928,0.6667291509856048,0.7139622542765012,0.06801353737519705,1.6420901890025354,-0.8769109086715127,-0.3838508999827292,-0.3057861321409325,20.55903408299721,6.437048336362856,72.72956403250646,0.20550398915550191,0.26723659237882275,0.9320121515100206,34.628241418249644,23.350777384772748,65.6786368139335,0.10030606663434155,0.09213460461313058,0.273676786144354,0.031588542607603354,0.013859733256038074,0.04082338539368616,-1.3362427689531249,7.3318172016875,2.9462732718804685,4.640895671632971,3.9278718248497864,3.2463849750252978,6.4861917,14.763247,12.450149,-14.516344,-5.0137577,-2.3391352,2985.4025436878287,8855.516230580417,2460.1013246294087,5.2648495,5.161899,4.8677113,456.907956146,965.9107522319996,432.35721237269985,2.5785552000000003,2.1284452000000003,2.50672916,0.4629901357419528,0.5366677435206917,0.3434818865409583,4.0,SITTING
-0.0755629989831721,-0.12585624444470905,0.4085799938120729,1.3021284735203633,1.7987305225411327,1.9414981524729185,3.6602290229491037,4.619720544897817,7.384309548507135,-3.5963007444925537,-5.030349080606991,-1.9901927065155833,217.75978603107873,416.16272473431286,503.85314398710125,1.24528304730984,0.31893332354955106,1.2838031308913207,117.60359680648575,129.41679210639813,154.37260866833392,0.6026227962157126,0.1575311788100935,0.6415866296696495,0.128443727660761,0.18217549370836927,0.18155564141433517,-0.04722566348257471,0.026368414165101522,-0.13426747148912083,0.31419983204058066,0.13438883302785953,0.0838137044039098,0.31908991863463976,0.23047323953022691,0.06781880679790499,-0.8769109086715127,-0.20879224652780784,-0.3057861321409325,12.921830111449408,2.4007234186460447,3.2067188410864413,0.23113077650233044,0.238392873444711,0.08140005384324475,25.55784218159593,15.698420348199445,18.00006203218234,0.1483679707509925,0.10887455563875933,0.05300592809251845,0.02757276420333258,0.010024422739572148,0.009052234075404824,1.53571672640625,9.0501759640625,3.4157823062499997,1.541763307106231,2.1867998682930256,2.439298244989591,6.4861917,14.763247,12.450149,-2.9951463,2.5737667,1.0462662,606.1388747395931,11096.035666491005,2255.0713205375823,1.2641384,1.1420339999999989,2.8706478,250.5226816600001,1158.4225233999991,437.2201352,0.653617075,0.38187450000000034,0.7733271,0.23175645885200408,0.43727044479524224,0.2974457224273661,4.0,SITTING
-0.03874822938236638,-0.0042884163581473345,-0.15917076898197832,0.3307615156946113,0.07488368395397652,0.5151508527367291,0.7167193519627699,0.24513772795933342,0.3615686569688341,-0.9546779789014721,-0.212724546417137,-1.9901927065155833,14.195789509742738,0.7201224495846228,37.21161405103277,0.36995176131851815,0.05923487743341127,0.6767001452167405,31.890900039206333,6.7889184194413374,46.891936830608955,0.19168381032430226,0.03180677188818848,0.23543111017268203,0.029713686570157986,0.010072462440376628,0.04849530531075304,-0.011952962741794384,0.11021736115716696,-0.07602771962422186,0.07152152211481304,0.05372695385371793,0.05056849719730868,0.20322708896632005,0.23047323953022691,0.0017827534159351732,-0.08032646705225577,0.049687525891208846,-0.17432093934201842,0.6730497848225812,1.9244098906686629,1.0671855436868496,0.05841818637559243,0.04838691613781117,0.05597653589737833,6.78903074855054,14.107822228117364,9.763637673387235,0.02005951267609335,0.014621735416483955,0.03180434539759892,0.006590593646268685,0.005855998306214269,0.004933357695713639,1.6054618649218753,9.58578509765625,1.7978584234375,0.4082932929288845,0.17222111795357709,0.2703312803966215,2.846706,9.93863,2.7389667,0.81163436,8.583512,1.0462662,351.25903523444947,11765.367814645479,423.08786072141436,0.28730410000000006,0.16280599999999978,0.25139120000000004,205.49911871000006,1226.9804924999994,230.12587820000002,0.15083479999999994,0.08020549999999993,0.12090719999999999,0.07022885084257204,0.1762914121011451,0.06238151189556791,4.0,SITTING
0.026001763856352604,-0.007351177116231497,0.09454376372783728,0.20965043474716316,0.038124816602726194,0.14444070615048307,0.4668750490485589,0.08898900949193234,0.3615686569688341,-0.500123850014788,-0.09897429078138664,-0.19570590117243425,5.7125627537044545,0.1929653050861712,3.81461002919364,0.1809136925546273,0.04338419296351326,0.24820366288777018,20.6788324113939,3.821238608314209,17.925549290831384,0.09114268252335012,0.02080807578482613,0.12400497668556487,0.019919837665331723,0.0048853719927586395,0.013818483821716618,-0.0240726122546629,0.0793710033767433,-0.04636674013665082,0.017365170318508844,0.016283977658751784,0.02321259838734618,0.007596313965908756,0.14322831125732682,0.0017827534159351732,-0.05082187240968367,0.049687525891208846,-0.08079874133152182,0.11277309452213344,0.8403102854939803,0.34415351229336777,0.0337289743439389,0.015374337010875691,0.022803040578322026,3.218028019983213,10.159488432223135,5.96703229897814,0.014013862271656519,0.009107413827595931,0.009244273618059212,0.002046713477177462,0.0031766017662493307,0.0027137851767113056,1.5854852460937499,9.59788711328125,1.8062194195312502,0.23911301026726184,0.08320061425634828,0.11385388682432045,2.1021092,9.845257,2.0374656,0.91937345,9.364022,1.4915876,329.08012764928395,11792.17400083237,419.2500862767116,0.27533319999999994,0.09337400000000073,0.16519989999999996,202.9421115,1228.5295505,231.1960857,0.13766659999999997,0.04668675000000011,0.08020575000000008,0.052768862431284896,0.16276983081665727,0.043269191757945316,4.0,SITTING
0.02254830589459173,0.0007217599169541816,-0.0273469264552167,0.20072620745325936,0.04403476446722013,0.09544536315551777,0.4668750490485589,0.11560968591323295,0.19637166815563645,-0.500123850014788,-0.13413862163434054,-0.24247836840132186,5.22232786653248,0.24826642163984303,1.2617819820077698,0.23456266652908964,0.05625539243669131,0.12363444188736294,20.206810352261368,4.355257162642802,10.188171128966466,0.1124129037685686,0.02690094299215584,0.06024945901416978,0.02148128201562371,0.005435735302570144,0.009580980352123448,-0.010721961574485022,0.07477467016419596,-0.059755181199066434,0.01602717338932656,0.011314300562496334,0.01876534268805571,0.009444413048529568,0.09674757382708946,-0.021182716513617812,-0.040170660789404754,0.06043376303765015,-0.08341524744712567,0.04759433559760265,0.7320658810089987,0.502120930090679,0.031489271336972366,0.019437234458714786,0.0345505721011978,1.797373577104212,9.571157781017085,7.648663193480504,0.0098585279935345,0.007657871162080596,0.015825626335027626,0.0015774882407244037,0.002054998688937062,0.002325047237333016,1.6601170070312499,9.606379035156248,1.70876792265625,0.23525605045135936,0.10017910819065882,0.1488469754815932,2.1547816,9.845257,2.0374656,1.0654198,9.299378,1.30484,359.85073744747126,11813.44691466335,376.58153415794857,0.30406370000000016,0.10534450000000106,0.19632459999999985,212.49497690000004,1229.6165165,218.72229409999997,0.15083465000000007,0.05386924999999998,0.10414780000000001,0.05835565054497566,0.16527345125078113,0.044896545590861286,4.0,SITTING
0.008782663478286133,0.002144855473182841,-0.01463881040187969,0.2402620377546329,0.047208988280578346,0.09611893053950397,0.5870280161418122,0.11560968591323295,0.2650078966383007,-0.520631798066977,-0.13413862163434054,-0.24247836840132186,7.398781691364029,0.28586098937300797,1.2100023779891411,0.2892272414525734,0.06796636386879662,0.1117896971867216,23.626952081173048,4.872502161544679,9.594797549076349,0.1476785391572969,0.03261439120253051,0.0565207708042228,0.021262081914489413,0.005426838041398739,0.010665991542313001,-0.022010504366424682,0.05254851840453686,-0.049676066603468474,0.022520524884237995,0.01804896466274582,0.022677794473598835,0.009444413048529568,0.07608937813544439,-0.010778320182111174,-0.04842818881190347,0.015542714208526851,-0.08341524744712567,0.12692945197132574,0.3951503247243525,0.38169522628851577,0.04446894976321121,0.023514264799919693,0.037469569157092486,3.242307054472488,6.726210355780721,6.358536525243957,0.01831383303082284,0.008574886994639153,0.020633909581615914,0.0017158896444644882,0.0021750722710918487,0.0024597619245387346,1.4752397444531251,9.62542040234375,1.7439701742187501,0.3421116307732662,0.0977235507224186,0.190802804219869,2.1547816,9.850045,2.195483,0.5770026,9.299378,1.30484,293.5517019551313,11860.2582802203,393.96322286883094,0.5051765000000001,0.12689200000000156,0.27293900000000004,188.83068729,1232.0538115,223.22818230000007,0.2477997999999999,0.06584099999999982,0.13646950000000002,0.06681608060894569,0.16552341494406025,0.050918511755315504,4.0,SITTING
-0.018216716032417386,0.001199450989246717,0.015535077056713439,0.23683019678914288,0.0402840561239823,0.07882689482120486,0.5870280161418122,0.08850343906635061,0.2650078966383007,-0.520631798066977,-0.11215229780153813,-0.19065505244251835,7.221810029336307,0.2079032141408973,0.826242299687849,0.22146610314706905,0.05353567168225304,0.09018293602474858,22.255686163711463,4.249047631208205,7.645270752721235,0.10597001322808897,0.030662424327128512,0.046162016867306144,0.022933368557731537,0.005832241515260853,0.009404720645420046,-0.030177526036444722,0.0419003511539918,-0.03827154135817791,0.01595633358350045,0.012633053759181558,0.01816893406385324,-0.006028350929344889,0.060444910217843636,-0.0052684719474233935,-0.04842818881190347,0.015542714208526851,-0.0685426021676536,0.14915682036585481,0.24514988468610496,0.22973709349726337,0.03381130958635194,0.013634929902659146,0.027430457250966253,3.8627233326649244,5.36324494771095,4.898757293846776,0.007664920583506891,0.006765466925831992,0.005828247744073076,0.0015124901352299987,0.0018892691537061041,0.0020111052148981323,1.214402707421875,9.623475144531248,1.9211036984375003,0.27898007301071864,0.08548482008868225,0.15113171529721134,2.030283,9.850045,2.195483,0.5770026,9.356839,1.3623008,198.73328856712283,11855.178433520176,475.3254675864217,0.2968810000000002,0.11492199999999997,0.20829549999999974,155.44354655,1231.8048184999998,245.90127339999992,0.1616086,0.05865849999999995,0.09217675000000003,0.05698593233678337,0.16350944898588313,0.05048447223012785,4.0,SITTING
-0.006537471074215767,-0.0007177649017520021,-0.003033283298425237,0.17069130953537354,0.03501393154654587,0.0561359716182933,0.629905247819452,0.09220213575637892,0.15004615322935932,-0.44534162304490055,-0.11992654787471935,-0.1513829155043278,3.7348174949052044,0.1569907953664496,0.4045373589885869,0.17618712714606866,0.043646938868954877,0.04162239148826785,15.331231580443452,3.4381319612210195,4.888095580857386,0.07606460944050064,0.021952026919660028,0.020811195744133926,0.018362642243159366,0.004562310168949765,0.006038046147038354,-0.010636263103142186,0.02481412132815765,-0.034748005944932145,0.011796106732052709,0.02148034179236897,0.01727378651042739,-0.002144886126044461,0.0544159096807694,-0.0052684719474233935,-0.04235961764385314,-6.704586617215479e-05,-0.0685426021676536,0.03229161303465516,0.13787464970310717,0.19274337504727837,0.005725514840377959,0.04329141495397758,0.026238234369067453,1.361441677202199,3.1774143555952765,4.44774476095132,0.0036448795772037737,0.019249730625196363,0.012310741215607178,0.0011566332874357156,0.0015824450114181987,0.0019191292090974979,1.2067337903125,9.61782637890625,1.95509014296875,0.21698515034457858,0.07358550977208074,0.09311617158527086,2.1428106,9.787796,2.1906946,0.59136784,9.419088,1.6567876,192.42099150746017,11841.023882500265,490.3741553336658,0.18914190000000008,0.0981620000000003,0.10773900000000025,154.46192516,1231.0817764999997,250.25153830000002,0.09576810000000002,0.05027899999999974,0.053869499999999904,0.04661613857856825,0.1616079996580102,0.04427860030035684,4.0,SITTING
0.0008288496886202992,-0.0024889320513897945,-0.0026430550395165914,0.15003695858693014,0.027031179837641726,0.03788315523210421,0.629905247819452,0.09220213575637892,0.0711262173304581,-0.29750305429396584,-0.11992654787471935,-0.1513829155043278,2.881507319529282,0.09432057166993459,0.18459125635604734,0.1575851060024278,0.03501855265881382,0.036561284087996526,13.3997298526373,2.592668753559595,3.3697118353384554,0.07545727503949351,0.017235846342754435,0.018566657713395385,0.016477787223987253,0.003899351012627493,0.0046045358643260256,-0.0056413711828678615,0.0061679476128943325,-0.026271613780197073,0.002765963193158469,0.005864839218703949,0.007658325669278648,-0.002144886126044461,0.02016679676789297,-0.005899710298604477,-0.011241901976091822,-0.006055662122505351,-0.042494671287236774,0.005052879514726312,0.009272309352532085,0.09585249826208939,0.004798408379975262,0.009155580509262426,0.011121671537888202,0.7220955114070867,0.8270380927766053,3.362766563865221,0.0014442876316517386,0.004504318529617671,0.005429921759299329,0.00032850818454852786,0.0007596584942011998,0.001275578232150137,1.30820678984375,9.61494586328125,1.90943196953125,0.19012019332152127,0.060614184141240986,0.07126519475563456,2.1428106,9.773431,2.1404164,0.9624691,9.455002,1.6567876,223.6864886914435,11833.709828242994,467.32917430419843,0.18674760000000012,0.08140299999999989,0.08858549999999998,167.45046910000005,1230.7130705000002,244.4072921,0.09337380000000006,0.03950400000000087,0.046687000000000145,0.04684298348540227,0.15961764791658006,0.040580003989081584,4.0,SITTING
0.011222479678763919,0.0015349878340340656,0.0009938535176336766,0.11052319158695839,0.02073365602605567,0.039202408034558635,0.3855151610057388,0.04067062658091558,0.07976510043958807,-0.2616805900109811,-0.061679961709154796,-0.13753671118056765,1.579688950874596,0.05532680702175069,0.19684051718688517,0.12039813092782525,0.030465965429160136,0.057604982729454246,10.619390871030754,2.193262226244345,4.067816987123276,0.06314920242436439,0.014752550934834296,0.028393151003844208,0.01285164212726634,0.002693782592192334,0.004716621122689672,-0.002025010211775336,9.515796379213568e-05,-0.016069294328042646,0.006374827695587928,0.009152346072318164,0.012896355008911224,0.007144168659950673,0.012298746981983855,0.015169184883810034,-0.011241901976091822,-0.01954769589970299,-0.03324048183004187,0.005726604096797335,0.0107231351891905,0.05434088866779301,0.013694335866964205,0.015468188297458494,0.01701086323222605,0.7921950759564966,1.0343165576144535,2.3645822219810726,0.005217177175359107,0.009862443389718558,0.010835193801690936,0.00044525707614514803,0.0007400321145901419,0.0014290991109297741,1.342978825390625,9.6196593984375,1.88586404453125,0.14864887103996166,0.055281095623913964,0.06935695516537617,1.7286136,9.814132,2.0374656,0.94331545,9.457396,1.697489,233.68814237555694,11845.235576509484,455.845578455754,0.17477679999999984,0.07182599999999972,0.08619130000000008,171.90128965,1231.3164029999998,241.39059770000011,0.08858549999999998,0.03591299999999986,0.04309570000000007,0.04281080298283417,0.15891174030380992,0.04018404676710822,4.0,SITTING
-0.0013444997077324662,1.571995632369816e-05,0.0024301549704539623,0.11854643843593773,0.01989323668402603,0.0418023842840152,0.3855151610057388,0.04329451502236026,0.07976510043958807,-0.3204459318948083,-0.061679961709154796,-0.13753671118056765,1.799048415399639,0.05065486244911432,0.22442815808113967,0.14411270701655599,0.02518877516895479,0.05814359325022633,11.41570824405217,1.9783858924290652,4.464240843503827,0.07210165663871149,0.01278172841030667,0.02881229159164178,0.011689589191579294,0.0024613874703914842,0.005123791279996498,0.0008680622073376785,-0.008938923891311104,-0.0036776913041378667,0.004462337235656058,0.006258936455702527,0.01096058229542065,0.0089801425576215,-0.002782600281880351,0.015169184883810034,-0.003961990632160805,-0.026788478467797847,-0.0169449875295201,0.002645246156867902,0.015242066674070359,0.017108451530652147,0.008510482725166359,0.008335994414105364,0.022362015615982632,0.511683231886246,1.144182258087822,1.3952000897390928,0.002649441924664557,0.0031143623841207654,0.006676648079690473,0.0004308849376510315,0.0008030309073144134,0.0009301503863371071,1.308824042578125,9.623737007812501,1.88027134140625,0.15125608813183797,0.053545972686809155,0.06698983170202205,1.7286136,9.814132,2.042254,0.8810662,9.457396,1.697489,222.19504366431903,11855.255189341553,453.10821822273607,0.19153600000000015,0.07182599999999972,0.08619129999999986,167.52947745,1231.8383369999997,240.67473170000008,0.09696519999999997,0.03471650000000004,0.04189854999999998,0.04151773759766114,0.15848366996973054,0.039760627853092874,4.0,SITTING
-0.007647845466393454,-0.0007430949972050543,-0.0015652304808655235,0.11283798366697309,0.022310255114939465,0.04058263383150689,0.1805917009820175,0.06750388460925016,0.1440312516924629,-0.3423668241448983,-0.059336579223995045,-0.08777739760154568,1.6372352125831577,0.06378235820397489,0.21112321474053095,0.12872753010221905,0.02482333432893924,0.051513557353682904,10.687179324714812,2.1422197081264667,3.9650047739611187,0.05409623509017558,0.011051290283889514,0.022541085236032044,0.012256287679247666,0.002869556497439512,0.004860106558497827,0.0009788892815688296,-0.013521153958543952,-0.001053315913993313,0.005279303153050906,0.007958322737404176,0.008612409451877153,0.00951171426037964,-0.002782600281880351,0.015169184883810034,-0.003972105313810666,-0.026788478467797847,-0.01200873400925293,0.0036901460489450998,0.03150803266090666,0.009636233085626167,0.008966826696495882,0.015590514185283181,0.01260034919302288,0.5891520151758538,1.7307077066936276,0.9348234391274907,0.0017296257656879252,0.0067222634277528965,0.00680834171148594,0.00038825840316318485,0.0008657357352068653,0.0007367904596302737,1.3448118765625,9.6227456328125,1.8589292734375,0.15104669197028295,0.05694154513565209,0.0644809181092778,1.6591818,9.766248,2.042254,0.8810662,9.440637,1.6831238,234.41076307183587,11852.860909231935,442.8513065527154,0.1795652000000001,0.0742200000000004,0.08619130000000008,172.13592020000004,1231.7114409999997,237.94294700000003,0.09097960000000005,0.03830699999999965,0.04309565000000004,0.04076904114141549,0.1589850243608762,0.03837643965124195,4.0,SITTING
0.013478625497475276,-0.0003104417271754395,-0.005809630343776394,0.08400188266364804,0.023669748560804126,0.04140550306516905,0.14240799989030628,0.06750388460925016,0.1440312516924629,-0.3423668241448983,-0.059336579223995045,-0.08777739760154568,0.9264626734513263,0.07172523148770055,0.2237654385678145,0.06375727852542612,0.032565649011687015,0.040235011417829813,7.513892941294934,2.38319718443322,3.831465862362532,0.03212739803056586,0.01683259084677502,0.01647884464455751,0.00935582575979206,0.0031360651965906803,0.005566587044071155,0.0029212643391534135,-0.016670177668031708,0.00016529312018892162,0.005134248545084002,0.005440340502428003,0.004716157044165911,0.00951171426037964,-0.003498118463611393,0.00714008842794368,-0.005070681769682249,-0.026788478467797847,-0.011062014948701807,0.0044664695631240516,0.039358992418060984,0.0028504907623446416,0.008966826696495882,0.00479095042560738,0.00484404860008994,0.6869258310005705,2.133782741508058,0.48008068587082164,0.004829849067984787,0.0032793688415573147,0.001615044027841019,0.0004242322413251059,0.000827713546714565,0.00048629438024629025,1.45559979609375,9.6151327578125,1.8316952226562497,0.129140593446902,0.05987642452438338,0.06625639114229523,1.7549498,9.766248,2.006341,0.9816227,9.440637,1.673547,273.33735158579003,11834.158481481323,430.0156541528229,0.1436522,0.06943199999999905,0.09576799999999985,186.31677390000007,1230.7369929999995,234.4569885000002,0.07661449999999992,0.033518000000000825,0.04429269999999996,0.040604895230883106,0.1594947435793984,0.038884122144484015,4.0,SITTING
-0.01533759018328526,0.0008632686093735104,0.006315977769849084,0.17282902073782855,0.03613085048239258,0.07255314930200465,0.22733469370358605,0.11023958328397399,0.29494263112219277,-0.9668405086348046,-0.10142648439959778,-0.12548745185590615,3.853454346473879,0.16719149942693615,0.6788929342500104,0.12748238846049098,0.037071762870420244,0.060507841392481554,13.026349382906893,3.438052726694492,6.03663432390533,0.053595435758996834,0.01863306448283364,0.03071023125135186,0.01787690152367933,0.004677538740701176,0.00796096445239556,0.009319107452717943,-0.023708291659884417,0.007363220807517166,0.010811771278771266,0.016488338863054983,0.02026297814326869,0.027642081445722597,-0.009749509974591087,0.05756049490976038,-0.005070681769682249,-0.06101467448414255,-0.009443046687285765,0.026078740723170086,0.10674539672231347,0.059495078898539326,0.020877709364077828,0.015173631743949367,0.012158931354597554,1.3622193254336963,3.034661332465201,1.6435348368046563,0.005132432340299807,0.005094404634017127,0.006173475576239356,0.0009797869211828245,0.0015774303260673445,0.0016983231183223522,1.4830582906249998,9.61311263671875,1.8179659742187502,0.25499700803353964,0.0748160634588025,0.10044951027367731,2.171541,9.850045,2.1284454,0.2657564,9.387964,1.5945383,289.8541270396933,11829.44409722793,424.331569604013,0.18914180000000003,0.08858600000000116,0.11252750000000011,189.83146120000004,1230.4784174999998,232.69964469999994,0.09097960000000005,0.04668700000000037,0.05865790000000004,0.06034916661170111,0.16130431762476544,0.043584677754840206,4.0,SITTING
-0.010754203364605253,0.0019307878466327671,0.006544191263219807,0.22026793846021098,0.038542240029248366,0.08335134230605384,0.5591531938403396,0.11023958328397399,0.29494263112219277,-0.9668405086348046,-0.10142648439959778,-0.13191195855676785,6.225103053250378,0.19062172264715516,0.8947549060493521,0.25249774367544076,0.04484851901373155,0.09254714186565582,20.590228914940788,3.819674155071981,7.95068284367936,0.12232422979416269,0.022870936257376684,0.048871066545913555,0.020202835906859968,0.00495801956004615,0.008184354118261608,0.00953208347921412,-0.020398646741151674,0.01157322275311349,0.013203770641829263,0.022262564273500332,0.028067364932454392,0.027642081445722597,0.014410046797646169,0.05756049490976038,-0.01011177362359434,-0.06101467448414255,-0.022395145634772646,0.03394562235094255,0.11670099928346,0.11797970677052869,0.025149213489246407,0.025593027196886824,0.046339512987012756,1.737842604156586,3.1056132943543493,3.127687846457123,0.013355044884612978,0.01661701927089853,0.014143142010632964,0.000792826209755878,0.0016524621707680051,0.0019994745910788024,1.5292027953125,9.612738578125,1.77627319453125,0.2978152532187866,0.08095857024406161,0.11174772297785474,2.171541,9.850045,2.1284454,0.2657564,9.387964,1.4772224,310.6758546228906,11828.646049467985,405.4571539457262,0.2873041999999999,0.10773999999999972,0.14125790000000005,195.7379577999999,1230.4305379999998,227.36296890000006,0.13646950000000002,0.05506600000000095,0.07062895000000002,0.0639216458333947,0.16265542120114265,0.04355852362817514,4.0,SITTING
0.014338665897052169,-0.0007656218348843086,-0.003856547147506455,0.19145254787191648,0.02991157839516423,0.06304040607340994,0.5591531938403396,0.07869789658620263,0.12477333681626224,-0.33150992848648575,-0.0947698049146748,-0.13666755803269548,4.718038454573534,0.11459695345716578,0.5105876164865742,0.2832153576761127,0.037992477919173595,0.09031031763206032,20.5073547114429,3.0755762465891774,6.647261390728483,0.14816235716366966,0.019971233462234395,0.043289791115781684,0.016527604963022267,0.004049948907220935,0.006664064865443784,0.0025225075989114107,-0.011344947334560974,0.0018598501996170869,0.010607555149515878,0.016693425488224275,0.025405509442850343,0.025829723334288412,0.014410046797646169,0.05233805513646034,-0.011596339948533135,-0.05320285452806818,-0.030611621833043702,0.015217058667083087,0.05214442042302186,0.0830590659604191,0.021448196777456394,0.034252190631239715,0.040483045989963704,1.2192558973464753,2.136486433107099,2.7072806355101737,0.008135805368590755,0.017040584838097003,0.020241522994981852,0.0007592568624812672,0.0015751117372110738,0.0019427613205679423,1.548767915625,9.615675277343751,1.74501763671875,0.22103629695869925,0.0680633446488801,0.08900714271238983,2.1284454,9.809343,1.9440918,1.0271125,9.455002,1.4772224,313.2850049334556,11835.627988250191,390.7851294609044,0.32082310000000014,0.09337400000000073,0.12689269999999997,198.24229319999995,1230.8064354999997,223.36225749999994,0.14963760000000004,0.04788400000000159,0.0586580000000001,0.05096185221840971,0.1604869639090465,0.040740848425717575,4.0,SITTING
0.004830707326674186,-0.00258496632582568,-0.0017804817201751161,0.1995432494682999,0.030850208960409325,0.060888500713978305,0.4480310876443414,0.07869789658620263,0.09881790968129112,-0.37302063329772284,-0.07862768268482867,-0.1483472129591552,5.099628050130453,0.12267743280724133,0.47495419319705773,0.32366798582251755,0.04035015203203152,0.09777620419880328,21.61291155658739,3.1695368524944474,6.52332635477476,0.1660043415531417,0.020851607482092582,0.041752882522266055,0.01924998836670206,0.00415428173390473,0.006669760319566587,0.002333196367302428,-0.007258472784652326,-0.0007419816484885582,0.00758810430172617,0.015127503814907916,0.016606580601134457,0.012752627219504781,0.020462400494533572,0.021649646147383888,-0.011596339948533135,-0.03552998056767298,-0.030611621833043702,0.00806696091933037,0.036035430250955784,0.035370119171669566,0.010381062188800251,0.02413620846010526,0.028242256781549617,0.8684547395870309,1.7110295991976743,1.7135313417989557,0.006921300501419635,0.01173361364434904,0.006976286670652298,0.0006184736328684278,0.0013212659514638746,0.0016252336718930735,1.477577828125,9.624111140625,1.7595698960937503,0.22935008783348884,0.0663451769369904,0.08991724366164199,1.9632454,9.809343,1.9440918,1.0271125,9.462184,1.532289,286.187225722345,11856.373366989445,397.3339302332262,0.3854666,0.09576800000000141,0.12210429999999994,189.12996200000003,1231.8862260000003,225.22494670000006,0.19153620000000005,0.051475499999998675,0.05985499999999999,0.0518485621735834,0.16064923140148415,0.040504612187595476,4.0,SITTING
0.005886941118465294,0.000853215223069817,-0.0038046142573989177,0.2628864303143394,0.027760667420507198,0.08529052826965235,0.48957852814433145,0.0732662666607613,0.2379275524522826,-0.7621877364197006,-0.062234598937575214,-0.15018969036496155,8.850423208850982,0.09873697687665767,0.9329855106769873,0.32191125789078834,0.043383027862125445,0.11532539661237906,25.378557953665926,2.8394851266210868,8.697128951469168,0.15428095628131355,0.021024717429511952,0.050357288195098215,0.025089661305455,0.003749579656370252,0.009755304139774336,0.004355445410187699,-0.006057861167855736,0.008632168395148819,0.007510620959653111,0.011264679954070576,0.01033084808757958,0.01749513451262566,0.020462400494533572,0.021649646147383888,-0.009021023180891393,-0.024835888432987376,-0.020564482103593042,0.009648554485850336,0.020939609138771704,0.023198816436589137,0.00891898497492024,0.013020081581500344,0.013585766110811841,0.8880393617548457,1.3676046494513574,1.5028133629173448,0.006642474772773924,0.007307204633474329,0.005808432282366001,0.0007106725028430767,0.0010813732939297775,0.0011586359252573099,1.440074904765625,9.631555531250001,1.7518261476562498,0.2915174000744184,0.06699232928369116,0.10668671500736028,2.0949266,9.883564,2.0494366,0.60094464,9.493309,1.5035586,276.3261601128796,11874.732790238131,394.2754440667133,0.34715929999999995,0.08140299999999989,0.13407530000000012,184.32958781000002,1232.8391080000004,224.2337469,0.17357955000000003,0.043095000000000994,0.07422024999999999,0.059001327869707715,0.16039094661386352,0.04249670812826917,4.0,SITTING
0.0012502560594246205,0.0012078776194383162,-0.0014328424779231491,0.2270662274944841,0.030417920701260592,0.07815325308617826,0.48957852814433145,0.08621522965760242,0.2379275524522826,-0.7621877364197006,-0.07521784488576344,-0.15018969036496155,6.59976125552524,0.11861873512085985,0.7820779527064026,0.16630985506383777,0.03579768459821331,0.06527976384033574,19.52646523448255,2.98487661497167,7.160318007789305,0.08343392763209045,0.018455028828491038,0.030857760810193646,0.02050863762209757,0.00378796005480521,0.008871310992395418,0.0013190640394051488,-0.004882465518341522,0.007108991610199097,0.00953144317964086,0.012515038318073896,0.010258603365006327,0.01749513451262566,0.0196190277774494,0.020196287231712712,-0.015848653425212432,-0.031060414154120457,-0.01763462515804826,0.011851307395427077,0.023099475666003417,0.01993941820344321,0.01055317092946067,0.009820315768955484,0.0135960007391333,0.9020880158859217,1.4079996209996035,1.3604338543705514,0.003034262939063664,0.008790343039118005,0.007055664902059607,0.0007718859839013243,0.0013849368379845288,0.0010204458306003112,1.456385403203125,9.634211582031252,1.726817959375,0.25303012651877793,0.06630485116713564,0.09408529685302808,2.0949266,9.883564,2.0494366,0.60094464,9.464579,1.5035586,279.69058401142246,11881.270930001072,382.8162954117071,0.2059013999999999,0.08140300000000167,0.10055639999999988,186.41733161,1233.1790824999994,221.03269879999993,0.10175360000000011,0.040701500000000834,0.045489799999999914,0.05404243095435639,0.16041607358679022,0.04105848119977264,4.0,SITTING
0.000601130661348764,0.00017837871131867744,0.0052982783654666864,0.1609449891799739,0.051477300755818446,0.08774796041415929,0.46240542303546217,0.2370543694749383,0.3895856585463022,-0.3597731135741862,-0.1614937250022539,-0.2475726076436764,3.3156673152273846,0.3391928719449136,0.9891553677418035,0.19912006100058233,0.054094404949520225,0.057290955569222035,16.537938142896515,4.621914232620107,6.832237610112101,0.09956003050029116,0.0258638834197642,0.02857540349539156,0.01786315195667988,0.006594552572124931,0.009643596621484413,0.002764451870052284,-0.005597409339723693,0.010239488812302843,0.00980206526790847,0.0213102261533757,0.017314434025041462,0.021369070920180012,0.03264552794855158,0.050062466857209484,-0.015848653425212432,-0.046405960516022485,-0.02952513795244648,0.013276502740246152,0.06213846144312881,0.05179350486333292,0.00836418813129698,0.034185952255182936,0.018541003060407246,1.0053503001843884,2.3390454440956785,2.0563888757642923,0.006203416905315692,0.018738103633723278,0.008298226635768135,0.000759676439844071,0.002075232185026756,0.0019039960987344755,1.541809775,9.623961453124998,1.71177938203125,0.21457207138610102,0.1112424912561946,0.11920659785876697,2.1978772,10.096648,2.111686,1.1683705,9.124602,1.3144168,310.17197518137243,11857.025144716385,376.883054812205,0.2753333,0.11252700000000004,0.11971010000000004,197.3516512,1231.8670659999998,219.1077609000001,0.13886364999999978,0.05506700000000109,0.05985505000000002,0.05273429858549766,0.16724492192640766,0.044951970876396234,4.0,SITTING
-0.0022612584396879114,-0.0016023161850452355,0.0011384697096529957,0.1799837661334879,0.04736429131396123,0.08697170313662919,0.46240542303546217,0.2370543694749383,0.3895856585463022,-0.4257149156889444,-0.1614937250022539,-0.2475726076436764,4.147106478249619,0.2874807691303221,0.9683677772500165,0.24655077304652462,0.04664295870001389,0.06990204119392396,19.06020811179243,4.031631275709392,6.846289528716466,0.12065329532073887,0.021533128146285385,0.033975656104643814,0.018241683547432812,0.005938736920725801,0.009338405276893821,0.0030190872092893967,-0.0024549782101158076,0.0031859273108594995,0.008817447233226892,0.021232583194785635,0.024347198320022988,0.021369070920180012,0.03264552794855158,0.050062466857209484,-0.010766501774357676,-0.046405960516022485,-0.03148446130954667,0.011118369700868526,0.058476736913361596,0.07717583345467015,0.014408193989857428,0.027651444690330543,0.041928315796007413,1.0044201998051085,2.283234219458827,2.8734749722654276,0.006375074974683067,0.012785951248189653,0.005352589537220238,0.0006358689823699465,0.0017954864473086253,0.0017847856335973214,1.63118083046875,9.6110925703125,1.6992472289062501,0.22489681961216737,0.1087485404004373,0.119405366842883,2.1978772,10.096648,2.111686,1.1659763,9.124602,1.3144168,347.05017358852984,11825.27060993989,371.4174446817859,0.3184289,0.09337400000000073,0.11492170000000002,208.7911463,1230.2198490000012,217.50364530000002,0.16639705000000005,0.046686499999998965,0.05746085000000001,0.055492568812109136,0.16623730211822493,0.04401426934559478,4.0,SITTING
0.00039762816376738737,-0.0024937664430767503,0.00031226798326090474,0.16535177165640197,0.026286913702099134,0.07133269956025427,0.2788916201960334,0.0749522981059183,0.18061794728252956,-0.4257149156889444,-0.08343410532419249,-0.18501362448034175,3.4996949117526412,0.08924424999094056,0.6513217968443992,0.26720105672214234,0.029633314557255375,0.08050467009219453,17.874650917136584,2.5754598995149927,6.9596346495763175,0.13196817027759233,0.014182543999800679,0.042557835613322714,0.017023249213528942,0.003278616649255082,0.007869867851470622,-0.0020222623667972353,-0.00010910230965062613,0.003755859327432085,0.00617922463946759,0.011870131094606294,0.02130266457493694,0.0057773632592883,0.03264552794855158,0.02529648089985051,-0.01489553013390708,-0.02656626005317586,-0.03148446130954667,0.005410862364821465,0.018036725186190105,0.05989247965180568,0.01058300728543702,0.015292114997963475,0.04209556238768555,0.6979505978555007,1.2618195612786458,2.6511748908622557,0.005228798864916275,0.007982762734727292,0.007076649849285514,0.0006012634797034002,0.0013682227297793655,0.0016862662960335686,1.5708207656250002,9.613337085937498,1.7381717125000002,0.22011368446187232,0.07415034118313057,0.10665940126379288,1.9776106,9.905111,2.0494366,1.0462662,9.397541,1.5227122,322.0387727111797,11829.98376972274,388.1749926416813,0.32561130000000005,0.08140300000000167,0.12449849999999985,201.06505799999994,1230.5071469999998,222.4859792,0.16639695,0.04070100000000121,0.05626375000000006,0.050313027698415724,0.16129873696116798,0.0416451301817507,4.0,SITTING
0.0016426525786494232,0.003947741856226927,0.0012892290773886834,0.1974283293888428,0.04151366311573388,0.0878605507860462,0.5196980611651232,0.09657433175829411,0.24496334909646555,-0.40140788154927143,-0.12983019286137143,-0.18501362448034175,4.9895223747537365,0.22258801805440637,0.9883057274932973,0.29759789241021073,0.05293570685249449,0.11705753520078788,20.852377608860056,4.160518448744298,8.925887615313691,0.1481087869370491,0.02751281797759919,0.056400761622555695,0.02015436600843911,0.005226407713643535,0.010325162943843575,0.00602409975820575,-0.013751342001911498,0.01881584374507963,0.010319386812651031,0.015191414624793271,0.0075950553316344515,0.024441776352390154,0.006577248391028639,0.03256908516159862,-0.01489553013390708,-0.051207069723648226,0.0008422725998681699,0.018275778826999114,0.05374444609995749,0.05270026769021964,0.016088511072555642,0.022206695420351592,0.009052930389273243,1.2111561416635026,1.9349009862181399,2.408427999370196,0.007296340105257967,0.0072048484806946445,0.004631270120253762,0.0008744098146896145,0.0014366530512251966,0.0009154329088064871,1.50296011640625,9.61593703515625,1.789198140625,0.2649434141747458,0.10477146033340975,0.13236648457381758,2.2864625,9.988909,2.1140802,0.9528923,9.335292,1.5227122,298.1227679004748,11837.08443174272,412.0001116997617,0.3663128,0.12928650000000097,0.1747767,192.37889489999995,1230.8399404999998,229.01736200000002,0.18195929999999993,0.06464400000000126,0.08858545000000007,0.059814232351762184,0.16587973482188784,0.0470713386979772,4.0,SITTING
-0.0024672600800428705,0.00018708688250226868,-0.00157785531535032,0.23659902743435454,0.05596710960687875,0.12027146837672074,0.5196980611651232,0.13901081859637188,0.24496334909646555,-0.5119123521152236,-0.12983019286137143,-0.3876538748835483,7.166103955863683,0.40094110198399774,1.8518676138097563,0.3983232155839007,0.09122809769274731,0.1327158772018706,25.056852474582907,5.995557016848789,11.359746289496686,0.19409597051696792,0.045364891699926524,0.06337784419177606,0.02210980307386348,0.006071591466452425,0.01398391925391019,0.009265558737509349,0.005909093669457936,-0.0004844308505026801,0.00794853770856455,0.03358092722072898,0.033173960797432,0.024441776352390154,0.066139326761673,0.03256908516159862,-0.0037087592173929602,-0.051207069723648226,-0.07979607813756777,0.019075818294106636,0.14881229580778566,0.14089553257452464,0.010351940265309875,0.05338842818289681,0.030793022858386747,1.2963690206151874,3.4725429999550346,3.2708032670601934,0.00636016216917281,0.028434498098473114,0.009414309461386047,0.0008823061784709647,0.002290185308176756,0.002970919320114389,1.5815385593749998,9.60426534375,1.7628619203125,0.30023518688612955,0.12412760677557212,0.18732107101740755,2.2864625,10.082283,2.3056161,0.9528923,9.2347355,1.2258313,331.6998889260159,11808.937018357905,402.27473071807833,0.4357447000000001,0.14365200000000122,0.2130839,202.43693559999994,1229.3459639999996,225.64632580000008,0.22026655000000006,0.07182600000000061,0.10773909999999998,0.06286059953324581,0.16914685971645277,0.056652200441745765,4.0,SITTING
-0.011508039844601978,-0.0019824195283385665,0.0070247535810895965,0.298770447849725,0.048235778032682156,0.12678785833892547,0.9655722975815577,0.13901081859637188,0.2321706249968749,-0.6112156341193715,-0.11835471226584993,-0.3876538748835483,11.442715582641943,0.29831939450937844,2.063937047685946,0.35753843139052655,0.060288767983069036,0.17578229037352,29.623601541693848,4.818196884596135,12.659946555458935,0.18626645154258625,0.03201230026788604,0.09103387862817058,0.026250519675245113,0.00557495488780424,0.012876543194265889,-0.003859559825975532,0.011032879468348071,-0.017496171897959198,0.012434649530870262,0.030893764122089565,0.03132063815515133,0.013784082210861734,0.066139326761673,0.017927071117157283,-0.021239291439346945,-0.04087992226186341,-0.07979607813756777,0.021698139008749628,0.13774708364728366,0.16474859590769372,0.02483076205289558,0.047635762303590755,0.04162830206742969,1.4711958385704675,3.3634208853033165,3.5128432807722803,0.007440738138413453,0.02671933524496594,0.01946355097570913,0.0008487821149285228,0.002352739448206244,0.0029506154097570956,1.462445729609375,9.61071848828125,1.792714625,0.3987721809705989,0.10690095270490663,0.20570097672668042,2.315193,10.082283,2.3056161,0.61530983,9.2347355,1.2258313,294.11414583919924,11824.299222359077,416.7857431699457,0.5195417,0.12449800000000089,0.2609680000000001,187.19305339000007,1230.1719664999996,229.46747199999996,0.2681506,0.06344599999999989,0.1316811,0.07070017681205079,0.1669537547875517,0.05639499521487956,4.0,SITTING
0.011575326271917886,0.001868018562735052,-0.00505456576070311,0.2925132248446491,0.05094708144534085,0.109930783485061,0.9655722975815577,0.1397720722889897,0.19979371965121295,-0.6112156341193715,-0.16325165829758603,-0.32199998651735284,10.969340785576655,0.33268410894706135,1.5501217014615851,0.38832105449521115,0.05040227566082045,0.1477971509057534,28.862953429879752,4.632475807467998,11.493797827407233,0.1806911515886898,0.023671701077738305,0.09245777505662378,0.02578976864819954,0.005788949438345136,0.01210014505290127,-0.0035247730608007352,-0.0011574706039016406,-0.014401047271539135,0.012485845795364351,0.024819435223851435,0.027004030789219986,0.011172717059433946,0.049790380993907715,0.030702468206233208,-0.021239291439346945,-0.04087992226186341,-0.06188880245935022,0.021545007405537844,0.07902004518782133,0.1198858036969275,0.02621464301379554,0.04620513384201606,0.036342423824279234,1.4554337609107157,2.6872529458838916,3.0341268009159124,0.006577826353687828,0.020432494079333285,0.015406895407750166,0.0009527234985354842,0.0022987380364781498,0.0026534444372570748,1.17437463484375,9.630152671874999,1.90890823203125,0.3717948555764464,0.10062658073718493,0.1623422851234237,2.315193,9.888352,2.255338,0.48362875,9.150938,1.4820108,194.2255612924802,11871.995672623625,469.7965639495384,0.5147533499999999,0.11971000000000132,0.23463170000000022,150.31995326000003,1232.659542,244.3402536999999,0.23942019999999997,0.05985500000000066,0.11731580000000008,0.06596890266428439,0.1655765438703671,0.05201489646062974,4.0,SITTING
0.008776323768790357,0.0010735067341623855,-0.011665431512140223,0.20809613459278595,0.04903417392167465,0.09801214281820098,0.49176683903685514,0.1397720722889897,0.21346643636870644,-0.4056346412545552,-0.16325165829758603,-0.32199998651735284,5.552771211693248,0.3079043364978342,1.247035191319023,0.2711257963213448,0.037358255212174285,0.1028318724860644,21.533831939402607,4.227533663779168,9.544133495515153,0.13682166091772163,0.01894162502595531,0.051526207042632666,0.01777631693161433,0.005852382203961717,0.010104094660533266,0.0070826073683717666,0.0014567618246458932,0.0003772253970000972,0.0029738815386933185,0.01943157822516854,0.02567861147681907,0.011172717059433946,0.049790380993907715,0.030702468206233208,-0.0004523823506081341,-0.024820863998442123,-0.05837836157661016,0.007552934213208956,0.04860267357882749,0.0844202734563284,0.0027284394841684085,0.024378868167061942,0.021844281231034768,0.9147166254625337,1.8736636828441313,2.5294490860060144,0.001636401714437236,0.008416129780226655,0.010390112660152022,0.00042967503861557604,0.0018772017755919125,0.002241507045511889,1.0495207692968749,9.63168645703125,1.96992297421875,0.25609736443674724,0.09474190705244277,0.1286962445282594,1.5442601,9.888352,2.255338,0.4381389,9.150938,1.6424223,149.3862022728899,11875.63008454542,498.8363837069472,0.31603464000000003,0.10055699999999845,0.16998829999999998,134.33865846999998,1232.8558664999998,252.15014070000007,0.15921444999999984,0.047883999999999816,0.08140289999999983,0.04743945306466552,0.16512450256889527,0.049091784771861983,4.0,SITTING
-0.006808760361919387,-0.001076623682788963,0.004478712572348362,0.15210561887069718,0.02535835071307565,0.06693696234854206,0.28098371474874395,0.05706155232358512,0.21346643636870644,-0.4056346412545552,-0.06996032862911505,-0.13227149398967009,2.9673572492420917,0.08245824888853584,0.5760788217287482,0.1560080230085774,0.02888879543772127,0.07018365596042586,14.814344300226264,2.479606958492038,6.248890581716995,0.07827574371008977,0.013711815767535995,0.03099888289778141,0.015163980793532573,0.0033496547048487728,0.007394262953424173,0.00476465210246136,0.0006441087853624439,0.004908348384242304,0.0035565506225872256,0.009577968005458017,0.01271962124282702,0.009838608676358968,0.02014197813957273,0.023498525052675624,-0.0023116517735713923,-0.016388335954274805,-0.025849930186891582,0.004524923134529932,0.01179550044684269,0.023792722998025016,0.005409966152469789,0.012967002745622375,0.018969311207245605,0.6608420308447008,1.0288568642058478,1.4570174907380724,0.0032628488442048463,0.006989441556530031,0.0073998065672622884,0.00038090656620935477,0.0006276920958528817,0.001067099479495849,1.11938283375,9.626524,1.9474212203125,0.21488583452044596,0.056350924066014746,0.10648952909547489,1.6400281,9.7447,2.2290018,0.4381389,9.445425,1.6903064,166.29681284758124,11862.161887900047,486.8850469286917,0.2537852999999999,0.07421999999999862,0.12689269999999997,143.28100271999998,1232.195072,249.26991619999993,0.12090719999999999,0.03950400000000087,0.06224924999999992,0.04340129620889997,0.15919530879792065,0.04552293314100843,4.0,SITTING
-0.014686981867011797,-0.0014729208025439228,0.005986146378249504,0.14801155420792217,0.027450853592642845,0.09917151754259254,0.28098371474874395,0.09211055060722373,0.2710230349612939,-0.4856670891928213,-0.06996032862911505,-0.28072996559000396,2.8317603347720475,0.09673201390787572,1.2634654515408086,0.16924103451698125,0.030625372597926415,0.12817845540897466,13.890181191363055,2.626365876530903,9.82707744875938,0.07985472052436748,0.012624087574691245,0.06079247404694099,0.015400326181352722,0.003710991790326947,0.011500392936644354,-0.00357684954472002,0.013000719593673982,-0.006584976957259448,0.008361077527637466,0.012508436343391431,0.01344985297872452,0.005996527045520881,0.03108449275992123,0.00872966613846663,-0.017298109039593803,-0.005150740808615916,-0.042073346092383244,0.010585788171357188,0.041661400282881816,0.028705339734648668,0.014907650208561975,0.029226331660352354,0.012722591261577366,0.860407106185051,1.903493124530967,1.3200585329711734,0.005335164431406494,0.013857484993554383,0.007182621830147701,0.0006782242082337347,0.0011992534089657369,0.0015207857296255164,1.1896938045312502,9.628020359375,1.9089082289062502,0.18635101795175046,0.07169461950277871,0.13131927808172886,1.6400281,9.862016,2.1883004,0.6560113,9.450213,1.5610195,185.61255045525684,11866.10126835266,468.6304485352835,0.24181439999999998,0.07661400000000107,0.17477670000000023,152.28080697999997,1232.3866059999991,244.34025329999997,0.11851300000000009,0.04189850000000028,0.08619130000000008,0.04580918660137942,0.16133234155562198,0.048685016394475256,4.0,SITTING
-0.009769513114656084,0.0015716909076807783,-0.0005817201146957832,0.18533021013309195,0.0396945282376946,0.12139302435526803,0.4635500813636313,0.10265697877281887,0.2710230349612939,-0.4856670891928213,-0.08984434185591539,-0.31717502419940313,4.408669462332602,0.2020001003932699,1.8862854093325485,0.255197476763364,0.037623443593707506,0.17470035243393567,18.12493395075749,3.7181053624161784,12.934134165573546,0.127598738381682,0.01858835329234587,0.09296729404051673,0.019153474730496202,0.00527673582646352,0.013402846286771996,-0.001474268075309084,0.008816269044714251,0.003611000765544499,0.010893071245545841,0.017438132117486745,0.021044697485587016,0.015312483458919971,0.03108449275992123,0.04934614594594102,-0.017298109039593803,-0.02702541562794705,-0.042073346092383244,0.015466555842356858,0.048872326606810734,0.05835758320494525,0.017872903152450458,0.029226331660352354,0.026455598488451935,1.1706758873779324,2.1190031865509074,2.0460093164635267,0.009735921473870788,0.016781914925583577,0.012613269592529307,0.0008550809799252197,0.0013909255722452719,0.0017492650531043426,1.2480711677343752,9.6251397734375,1.89766670078125,0.23775661568016226,0.09017413603273092,0.15672515942877993,1.9033904,9.862016,2.2409728,0.6560113,9.354445,1.4580688,206.6188605477799,11859.385220226277,464.08981540505243,0.3016692999999999,0.1173169999999999,0.21787230000000024,159.75310947,1232.0178910000006,242.90133770000003,0.14844040000000003,0.05746049999999947,0.11372455000000015,0.05567877785492399,0.16393785881730308,0.051307657197598874,4.0,SITTING
0.011930688647301017,-0.001048574750374287,-0.00552493169698114,0.21408488144738747,0.04425848414098897,0.12020427317023728,0.4635500813636313,0.10265697877281887,0.20125874764194873,-0.5272803900760757,-0.11476791324455426,-0.3245593369724027,5.884758757880421,0.2508688547155578,1.85338779630609,0.28677212873419267,0.048108267755292644,0.16608977651833423,21.68836033934076,4.363315210579344,12.294281370572177,0.13641779349681027,0.025087369365762058,0.08372615724943777,0.02072447092642836,0.005999178296801645,0.012727390109440247,0.00031160298304801844,-0.0034526372419240027,0.003569530995574593,0.011707506172929807,0.013347593798525886,0.021512275611788496,0.016024859199473284,0.027495279980574813,0.04934614594594102,-0.021698352327706564,-0.02702541562794705,-0.025127057400083683,0.01755683804265395,0.024330107409250186,0.06086650285131751,0.020173819761733075,0.021069256808418004,0.035197468643611104,1.2664976933953598,1.504230021282892,2.461730363449972,0.011238593994481183,0.010759241072291792,0.019530472219370165,0.0009710228490834812,0.001485905312372017,0.0017308884322643852,1.353584380546875,9.613935671875002,1.8926538499999999,0.2555194676102952,0.09269282797640509,0.15291441071468503,1.9297266,9.859622,2.2409728,0.7302315,9.354445,1.4580688,242.87755181930456,11831.852936103534,461.5067408542776,0.35913019999999984,0.11970999999999954,0.20350709999999994,173.25880070999997,1230.5837659999995,242.25969279999993,0.17836810000000003,0.05506674999999994,0.10175350000000005,0.05667204608930562,0.16462205111936823,0.05165194150188278,4.0,SITTING
-0.006461567046902667,-0.0025049697478138344,-0.0004796759772649293,0.20682028002377853,0.05035236017134546,0.14367899533150627,0.453138244024216,0.1520721051826186,0.3413818609415946,-0.5272803900760757,-0.19502097875201763,-0.3245593369724027,5.480496649960421,0.32532928617758194,2.6424171249298136,0.18725375970861036,0.051435221163430356,0.20740492680583933,19.34106500862661,4.664925638016172,15.049182234227633,0.09458069918883028,0.026638090828805083,0.1056878515938805,0.021016325028278743,0.006977747064463857,0.01439653608693182,-0.010697834658306822,-0.01109197727610776,-0.002575927308806331,0.014369418312287528,0.019200112451455188,0.014746170909324416,0.016024859199473284,0.024236539648338364,0.022158486400930533,-0.03587433990342987,-0.0351855939753387,-0.025127057400083683,0.04107825267327676,0.06293456358940362,0.02868287462236926,0.025968419136619784,0.026835749992746537,0.02430914509233131,1.9788043542324127,2.471300461606137,1.6397938348920948,0.010883307534584854,0.015971785581720667,0.011380924410497116,0.0014667059978686467,0.0020787156216685483,0.0012740876540851469,1.371316437265625,9.607632199218749,1.889025140625,0.25089107301584823,0.1283241792464642,0.17126912748674072,1.9656396,9.993697,2.2840683,0.7302315,9.0839,1.4748282,248.76225300914305,11817.352137016864,460.5118842807513,0.31603460000000005,0.1197095000000008,0.24899700000000013,175.52850396999995,1229.7769215,241.79521800000003,0.1663969999999999,0.05985500000000066,0.12210430000000017,0.05542741544706904,0.17007194386801197,0.053790340738812704,4.0,SITTING
-0.009525909207541365,0.0002144522169233859,0.006876258992261878,0.17367876123965278,0.047449980529201664,0.13566546692032355,0.453138244024216,0.1520721051826186,0.3413818609415946,-0.42444413979847817,-0.19502097875201763,-0.279875193080946,3.8726470466522414,0.2881979701727949,2.361907437112073,0.17798304185799663,0.052572080751071226,0.19461362682711636,16.805147173566986,4.379722407393382,14.182803787605971,0.08895371030617105,0.02534338533915914,0.09755599404415571,0.020011620091499427,0.006727015070427693,0.014087238470515167,-0.013555858847790566,-0.00599598226546927,0.01383832662376785,0.011858955253812016,0.02065244410595405,0.013959859171916566,0.005953996888883329,0.024236539648338364,0.04603123547202818,-0.03587433990342987,-0.0351855939753387,-0.016824307357298354,0.041522704488081534,0.05919683211230443,0.04945624983626563,0.019758598505418754,0.0421883032912425,0.014257947907176945,1.9622845168288163,2.328944420122491,1.96235622347008,0.005966426520921038,0.011174983678768102,0.010092254677288883,0.001272618507302169,0.001931399473820913,0.0015697920468115837,1.353023236171875,9.6138982890625,1.8787375531250001,0.23017103091954966,0.12326720665564701,0.16076885299427995,1.9656396,9.993697,2.2840683,0.7757214,9.0839,1.5346833,241.10727438023454,11832.60609493447,455.1041814547469,0.28251570000000004,0.11731550000000013,0.22026659999999998,173.18697423,1230.5789809999997,240.47840680000004,0.13646940000000007,0.06224949999999918,0.11133039999999994,0.05450065342709575,0.16964206175904395,0.05151134313315404,4.0,SITTING
0.009777174137924366,0.002740374961938574,0.0010399138745906065,0.13816288245542935,0.028232161568209117,0.08676445297666523,0.3026650698194613,0.054702285801290884,0.1960796503326132,-0.3230627368945804,-0.08660686694261344,-0.23954133881742123,2.455625628482058,0.10298426902342185,0.963731420314434,0.1680655538645499,0.03999786100481373,0.12246293229630534,14.532676881671495,2.990199128120402,8.838242871863091,0.0907536471896414,0.017100058033590493,0.05631237208586204,0.01523721405986864,0.0035460975770675775,0.009249530631432669,-0.006809999885707006,0.009383912591677071,0.0048855183770458235,0.00769351610313362,0.008933154147318816,0.021909301568565725,0.005953996888883329,0.022255597976689183,0.04603123547202818,-0.021651641172512434,-0.029961265046383218,-0.02311147329658396,0.013512484924480721,0.021485959494143347,0.0644973804844556,0.01426309669700728,0.013890438722071548,0.0351187488423019,0.9805562733521502,1.4006506953854831,2.617340903722879,0.006267804149510543,0.005481227437500024,0.02380790189444088,0.0007079650982419459,0.0012365625143116149,0.0015514215146574556,1.3936498457812498,9.619547140624999,1.85200853203125,0.18629115345192965,0.06451150857847061,0.11037735931505321,1.7956513,9.792584,2.1428106,0.7757214,9.457396,1.5346833,253.0514286720707,11845.100662457056,440.59120181323664,0.2130839,0.08619199999999871,0.14125789999999983,178.38718026,1231.3020340000005,237.0570921,0.11492150000000001,0.04309550000000062,0.07182599999999995,0.04855417220446447,0.1606986145935897,0.043920212280618764,4.0,SITTING
0.012768015277686855,0.0004291506921542676,-0.00680090146999051,0.17922702686567887,0.034103749153824955,0.08749140257210929,0.6207454887746864,0.05756583571424301,0.2587703312731995,-0.3896717704540108,-0.14056088770946928,-0.25010273481379564,4.132524719774978,0.14889598421293984,0.9857277164594443,0.19617422072817114,0.03864933925082248,0.10625329752724899,17.575938194755718,3.156038515968394,8.519516148429517,0.10189839611471807,0.01891004424116982,0.05434220648558574,0.019227101190218844,0.004070563594611049,0.009812247583135914,-0.0014845908965219323,0.0088560071734477,-0.011436031818425861,0.010018105715179557,0.009008009524710031,0.010196893033419516,0.021823561134712732,0.022255597976689183,0.016070375286995942,-0.020958391981290462,-0.005553551212661333,-0.02311147329658396,0.01312850588807028,0.020425356627638228,0.03004920976474217,0.007373778413190275,0.01644628014067611,0.014007053638536469,0.9533039889895331,1.3011378891820524,1.7664170667612578,0.0044991469595804055,0.007945231298509044,0.006583826563495654,0.0010312217503824785,0.00084707161794084,0.0011654982959007363,1.402066961328125,9.618088183593748,1.8456489320312501,0.2118777942228265,0.06330689559048207,0.13437778258152455,2.0446482,9.821315,2.2984335,0.92176765,9.387964,1.42455,257.36754735777436,11841.488393013125,438.3331032012317,0.26336209999999993,0.08140299999999989,0.11970999999999998,179.46457105000007,1231.1152875,236.24306330000002,0.1304841,0.040701499999999946,0.062249200000000116,0.05220206421642312,0.1596680019836296,0.04901837758975121,4.0,SITTING
-0.005380385741029719,-0.0013922942342167038,0.003874827291787255,0.17251277295444517,0.03391300916648141,0.08731606293616581,0.6207454887746864,0.05756583571424301,0.2587703312731995,-0.3896717704540108,-0.14056088770946928,-0.25010273481379564,3.813069489043742,0.14745992626694224,0.9778059690513466,0.18022492515050215,0.03489263729985126,0.1075184991151652,16.19928621346059,3.094323575616885,8.365656379914883,0.08964876555260959,0.01834462537379622,0.04737924411361438,0.018220523939801177,0.0042747413992630275,0.01015331380911445,0.0026589865687333108,0.003914607184212946,-0.008929906371003497,0.010901403032572218,0.007191392824516698,0.005598739254519506,0.021823561134712732,0.018954158168259554,0.0007410132687121693,-0.020958391981290462,-0.006634378951123911,-0.018864070592503328,0.016116582099363685,0.00858115586088985,0.014219405956478269,0.015852705230335638,0.009548027900716518,0.009123349031357671,1.2389664093940809,0.8139865330442065,1.1563662543252664,0.00467185453868023,0.004999277871829277,0.004540025059335536,0.0010338898084217125,0.0007789805816970578,0.000662181785121402,1.365050366015625,9.617657933593751,1.86151051953125,0.20356281517605543,0.06528508720763489,0.1311945584070575,2.0446482,9.821315,2.2984335,0.92176765,9.387964,1.42455,243.81444114966956,11840.461602589512,445.7514785895843,0.22266070000000004,0.07421999999999862,0.1316811,174.72644685000003,1231.0602154999997,238.2733465,0.11611870000000013,0.03591300000000075,0.06464344999999994,0.0504914316389163,0.16005645248694597,0.04918510002352429,4.0,SITTING
-0.0001671004467634664,0.0011598671949948625,0.0015554557610845399,0.09581200612214484,0.02178686639856039,0.058299332797262814,0.19286058681879248,0.05658795011313522,0.1326388778185883,-0.2051492905842307,-0.05296431406780577,-0.11550678817696358,1.1750359602827811,0.06092964344047939,0.4353576508455289,0.12577390719433645,0.024140784434237617,0.09359711419484484,9.958589181532384,2.0883457808011343,6.352850862449522,0.060904486576564776,0.01218929979600869,0.050181760999023384,0.009862991294959166,0.002962442414581273,0.006251058575151916,0.0038172353500098956,0.003415306318551292,-0.008133024011769295,0.005319104580760037,0.005155288571786842,0.005026514965082961,0.009861211517898202,0.015557547814938835,0.0008951981978038859,-0.006872550444273372,-0.006634378951123911,-0.016702075587149347,0.005486612385078737,0.004894888641015344,0.011700727330588028,0.006516137537484711,0.006339491403274532,0.00735938659152102,0.7720137406525185,0.5825070512587686,1.0571406410669406,0.002810374792591097,0.0027222372586602882,0.004064957157660018,0.0005366839503676336,0.0006166162558211831,0.0005780763110151109,1.3939491265625001,9.6185183828125,1.8445827625,0.12090787852378077,0.05023936515119266,0.07555899742941975,1.6567876,9.732729,2.042254,1.0893618,9.490914,1.7070658,250.58724896428518,11842.357743912042,436.24892541499815,0.16519980000000012,0.06943200000000083,0.11731580000000008,178.42548820000007,1231.1703530000007,236.10659359999988,0.07781150000000003,0.03351850000000045,0.05985499999999999,0.03750747958807602,0.1578517867344306,0.03927250397519112,4.0,SITTING
0.00286129277244105,-0.00012505952747429716,-0.0003259326129240493,0.11318435625898116,0.020796108004708273,0.05376605388439306,0.1984434639136159,0.052461067234515824,0.1304192527385486,-0.2803835618234807,-0.06952015984621518,-0.08906168579343543,1.6408173437554665,0.05535919974769967,0.37003453214305587,0.15265216594663067,0.023432147980734896,0.09045399494026451,11.599416510524872,1.9934187345829635,5.926100736529853,0.06429465614529917,0.011676666332598451,0.042947535551348226,0.011328781077401814,0.0028118070315447385,0.0055373359151605255,0.0027977673181178208,-0.003738119911900514,0.0012384335999384784,0.003451116694479335,0.008594938397138216,0.011497877211655325,0.008727849779933938,0.009057253901822977,0.018122686963749208,-0.0048245850858197195,-0.01834256615188411,-0.016702075587149347,0.0025264266758709933,0.01124435283537255,0.01711806696393723,0.0026258456406781584,0.01591852259081635,0.026047224576753604,0.5178159245734116,0.9852673661367372,1.213431652333166,0.00125744947797389,0.008580917999984675,0.008760220306433933,0.0003357084278502435,0.0006248341878918312,0.0007932923492568341,1.3999346249999998,9.62005223828125,1.8310405585937501,0.1441543428965678,0.04640089957615513,0.06938278153234928,1.7549498,9.730335,1.9847932,1.0582372,9.517251,1.6998832,253.5164708927785,11846.087438174925,429.7630076913252,0.2082953999999999,0.06943200000000083,0.11492170000000002,179.19163199999994,1231.3666865000002,234.37319150000002,0.10175350000000005,0.033519000000000077,0.05746080000000009,0.041074316278589824,0.15735392887373756,0.038280759408038156,4.0,SITTING
