body_gyro_x_mean,body_gyro_x_std,body_gyro_x_max,body_gyro_x_min,body_gyro_x_energy,body_gyro_x_iqr,body_gyro_x_sma,body_gyro_x_mad,body_gyro_x_amplitude,body_gyro_x_dominant_freq,body_gyro_x_mean_freq,body_gyro_x_freq_energy,body_gyro_x_entropy,body_gyro_y_mean,body_gyro_y_std,body_gyro_y_max,body_gyro_y_min,body_gyro_y_energy,body_gyro_y_iqr,body_gyro_y_sma,body_gyro_y_mad,body_gyro_y_amplitude,body_gyro_y_dominant_freq,body_gyro_y_mean_freq,body_gyro_y_freq_energy,body_gyro_y_entropy,body_gyro_z_mean,body_gyro_z_std,body_gyro_z_max,body_gyro_z_min,body_gyro_z_energy,body_gyro_z_iqr,body_gyro_z_sma,body_gyro_z_mad,body_gyro_z_amplitude,body_gyro_z_dominant_freq,body_gyro_z_mean_freq,body_gyro_z_freq_energy,body_gyro_z_entropy,total_acc_x_mean,total_acc_x_std,total_acc_x_max,total_acc_x_min,total_acc_x_energy,total_acc_x_iqr,total_acc_x_sma,total_acc_x_mad,total_acc_x_amplitude,total_acc_x_dominant_freq,total_acc_x_mean_freq,total_acc_x_freq_energy,total_acc_x_entropy,total_acc_y_mean,total_acc_y_std,total_acc_y_max,total_acc_y_min,total_acc_y_energy,total_acc_y_iqr,total_acc_y_sma,total_acc_y_mad,total_acc_y_amplitude,total_acc_y_dominant_freq,total_acc_y_mean_freq,total_acc_y_freq_energy,total_acc_y_entropy,total_acc_z_mean,total_acc_z_std,total_acc_z_max,total_acc_z_min,total_acc_z_energy,total_acc_z_iqr,total_acc_z_sma,total_acc_z_mad,total_acc_z_amplitude,total_acc_z_dominant_freq,total_acc_z_mean_freq,total_acc_z_freq_energy,total_acc_z_entropy,Activity,ActivityName
0.0222503515984375,0.014434088948273863,0.05054452,-0.003862224,0.0007034210700207719,0.021992247499999996,0.0223698310828125,0.008677869000000001,0.054406744,0.0,0.21437061784158212,9.818126806575044,0.7081304539186699,0.019402769061484373,0.019828366001697104,0.07485018,-0.009021585,0.0007696315455505529,0.0267142335,0.020501480699453126,0.011957479,0.083871765,0.0,0.5956357396496695,9.390379308118854,1.2384349835264723,0.00946815436515625,0.005943238143615174,0.02285864,-0.006890512,0.0001249680267141497,0.0082998615,0.00989785894734375,0.004028347999999999,0.029749152,0.0,0.7294637205787395,1.7581453369241913,0.9325451605485103,1.0193045703124999,0.001790556184033647,1.024606,1.012817,1.0389850131513985,0.0021539999999999893,1.0193045703124999,0.0010980000000000434,0.011788999999999827,0.0,1.4709071202172467e-05,17022.704203616424,2.7866003839220087e-05,-0.12426187265625,0.0032699981286241505,-0.1172102,-0.132631,0.015451705883799297,0.00506520000000002,0.12426187265625,0.0025026999999999966,0.015420799999999998,0.0,0.0015760329287151248,253.07315324034298,0.004193261188218604,0.09973179460937501,0.00396959917623656,0.109485,0.08874205,0.009962188573626539,0.004066242500000011,0.09973179460937501,0.0022556550000000022,0.020742949999999996,0.0,0.0035501171099890758,163.0914103988769,0.008944562938263748,5,STANDING
0.01192575516875,0.016333965468020836,0.05524938,-0.03864973,0.00040902206425546444,0.010832965,0.016669359153125,0.0058403635,0.09389911000000001,0.0,1.2097440450059682,4.516182618218875,1.9432009942279633,-0.004313741815078125,0.010356062224478161,0.01685763,-0.03016049,0.00012585639324441707,0.014572066,0.009054326935390626,0.0072568675,0.04701812,0.390625,1.080991828264014,1.183470742850335,1.7774711612005536,0.0063075711740625,0.007430688189073518,0.02513287,-0.009759107,9.500058107910084e-05,0.010422081125000001,0.0079904659765625,0.005331918,0.034891977000000005,0.0,1.071706323486324,1.1041766638684432,1.6176023484717532,1.01944796875,0.0019319124427684116,1.024606,1.012893,1.0392778932741873,0.002226999999999979,1.01944796875,0.0011404999999999887,0.011712999999999862,0.0,1.174372912208325e-05,17027.498429359744,3.14531791584331e-05,-0.12293556953125001,0.004930122077050277,-0.1085598,-0.132631,0.015137460359667421,0.006164350000000013,0.12293556953125001,0.003207950000000001,0.0240712,0.0,0.003046178842525443,247.81305269748913,0.008788685976535659,0.09693947789062499,0.0049184870693497204,0.1057878,0.08109954,0.009421453888758334,0.005656649999999999,0.09693947789062499,0.0028105000000000005,0.024688260000000004,0.0,0.0050959419173365215,154.16292657084907,0.01375501014707875,5,STANDING
-0.004149542187499999,0.02225643143116854,0.05524938,-0.03864973,0.0005125674404161491,0.0366079875,0.019791709359375,0.018609985000000002,0.09389911000000001,0.390625,1.3701873188383995,4.340249933743955,1.8798279721135354,-0.012640026993750001,0.006920124535633173,0.000761135,-0.03750257,0.00020765840599140092,0.007811963,0.012651919728125,0.003499104,0.038263705,0.0,0.4979748117867141,3.0099858567761797,0.7476466288692798,0.004334764210234375,0.008753414795710247,0.02860941,-0.009759107,9.54124513440879e-05,0.01324301575,0.0074186284466406256,0.006722818,0.038368517,0.0,1.7470896222196473,0.935553732197808,2.251962483786023,1.0199265078125,0.0029039851228422242,1.027664,1.009013,1.0402585144681953,0.0030964999999998355,1.0199265078125,0.0016320000000001889,0.018650999999999973,0.0,2.48702663928768e-05,17043.526417410016,6.770663284007318e-05,-0.12499678124999998,0.006459556158801544,-0.1085598,-0.1371418,0.015665921188629063,0.010127549999999999,0.12499678124999998,0.004815249999999993,0.02858200000000001,0.0,0.0035436892686842914,256.32864570161,0.01328462667298749,0.09289679640625,0.006144959011692115,0.1057878,0.08109954,0.00866757530379964,0.008946695000000005,0.09289679640625,0.004379234999999995,0.024688260000000004,0.0,0.007059937375318776,141.70023205914515,0.021290526027019002,5,STANDING
-0.016228377761718753,0.009165049486718514,0.01036105,-0.03751574,0.00034735837687104693,0.013132168,0.016622271683593752,0.0065553700000000005,0.04787679,0.0,0.48603918581455596,5.003188731631846,0.7944526200717078,-0.007696515702343749,0.007792828643806709,0.007778423,-0.03750257,0.00011996453222815823,0.009072466000000001,0.00868193997421875,0.0045750695,0.045280993,0.0,0.8628483065464484,1.4680317329183572,1.4299912261024432,-0.00035190115179687504,0.008186481257612248,0.02860941,-0.01322325,6.714230980187257e-05,0.00690697325,0.006022423056484375,0.003583296,0.04183266,1.5625,2.3439295581424946,0.5510718914503651,2.4849857749968582,1.0203490546874998,0.0025741396600023106,1.027664,1.009013,1.041118819596664,0.0027857500000001423,1.0203490546874998,0.0013719999999998178,0.018650999999999973,0.0,1.951931324890918e-05,17057.636460548936,5.341501044247332e-05,-0.13049271093749998,0.004028792529953811,-0.1167494,-0.1435455,0.017044578777067346,0.004376174999999982,0.13049271093749998,0.002273750000000005,0.02679609999999999,0.0,0.001783702849818028,279.12541302103006,0.005397412376698767,0.08765391765625001,0.004945062505138251,0.09873661,0.07688773,0.00770766292366838,0.007823602500000013,0.08765391765625001,0.0040261700000000095,0.02184888,0.0,0.006142546328491348,126.08204105024728,0.016306773279909276,5,STANDING
-0.00648257872109375,0.014543989192367102,0.04370605,-0.02490169,0.0002535514485028685,0.014639331,0.01346347471640625,0.006886248500000001,0.06860774,0.0,1.3857727072299775,2.421496925558918,2.2479238634233223,-0.00016643552968750007,0.007815092695810325,0.01744664,-0.02058165,6.110337462965026e-05,0.00996685575,0.0062933819296874995,0.0048833950000000004,0.03802829,1.5625,2.7479413614076895,0.5008272965649272,2.5377873597464036,-0.003957091590625,0.008259952032748819,0.01989048,-0.02114078,8.388538143990644e-05,0.0097547979,0.0073606512140625,0.005181331,0.04103126,0.0,1.4725150392897737,0.8154747699847498,2.154011918640974,1.0202553437500002,0.0019486496223246328,1.026194,1.013645,1.0409247636857812,0.0025060000000001192,1.0202553437500002,0.0012220000000001674,0.012549000000000143,0.0,1.091299948382114e-05,17054.4802240701,3.1864423317672886e-05,-0.13020888671875,0.0038759088499177173,-0.1214556,-0.1435455,0.01696937684994914,0.004877025000000007,0.13020888671875,0.002444700000000008,0.022089899999999996,0.0,0.0015674478145849184,277.9032051018366,0.0050906021984048495,0.08499887359375,0.003636709271449889,0.09338777,0.07459499,0.00723803416653134,0.004742174999999987,0.08499887359375,0.002479519999999999,0.018792779999999995,0.0,0.005825020121262635,118.4796147363718,0.0102466174372128,5,STANDING
-0.00113513005390625,0.014546393759712594,0.04370605,-0.02306482,0.00021288609165188668,0.020332153250000002,0.01163340054765625,0.0102363205,0.06677087000000001,0.78125,1.677448749408844,1.754545547720252,1.9336355769032278,0.00178172668203125,0.00801384050209767,0.01744664,-0.02058165,6.73961895625231e-05,0.01019447825,0.00659254021640625,0.0052785490000000004,0.03802829,0.78125,2.655642987163912,0.5781330059396467,2.6309909377532077,-0.00324004854921875,0.010345963162735162,0.02442312,-0.02497604,0.00011753686836596746,0.01569882975,0.00895931531015625,0.0080330145,0.04939916,0.78125,2.3165734758004013,1.049054750399208,2.49932027322782,1.020177453125,0.0022676281036697167,1.026194,1.013645,1.040767178001828,0.0029370000000001895,1.020177453125,0.0014079999999999648,0.012549000000000143,0.0,1.4083110824722399e-05,17051.887320317084,4.2002392316513364e-05,-0.12627476875,0.004217399576785846,-0.1181566,-0.1368123,0.01596310368205625,0.006205474999999988,0.12627476875,0.0031589500000000006,0.018655699999999997,0.0,0.0019865378397311635,261.3938124759069,0.0063388353547160475,0.085844796640625,0.0038772622820662057,0.09525821,0.07459499,0.0073843622730741946,0.004875062499999999,0.085844796640625,0.002241304999999999,0.020663219999999996,0.0,0.005840175128228427,120.86224654383538,0.011425867517005908,5,STANDING
-0.0009543785406250003,0.011947292373131255,0.02019744,-0.02453928,0.0001436486334478858,0.018079393,0.0100339145171875,0.009398367,0.04473672,0.390625,2.1515926734636572,1.1842312256777285,2.459500160141257,-0.0039313067640625,0.010234126719707737,0.01464141,-0.03342406,0.00012019252258819942,0.011577432250000002,0.007848374509375,0.005610581,0.04806547,0.0,1.773290946666031,1.1112435781150656,2.451464943134882,0.0040416269709375,0.012238016855504451,0.02952505,-0.02497604,0.0001661038051278205,0.01678545875,0.010339804421250001,0.007781751000000001,0.05450109,0.390625,1.9403556359046552,1.4946320938003261,2.447023252466244,1.020628984375,0.002430580553670425,1.027167,1.014804,1.041689431468172,0.0033015000000000683,1.020628984375,0.0016249999999998765,0.012362999999999902,0.0,1.6631558051140492e-05,17066.991271912066,4.75133475191964e-05,-0.12735727265625002,0.006275145292101746,-0.1174678,-0.1475441,0.01625925234687539,0.007450750000000006,0.12735727265625002,0.0036733500000000127,0.030076300000000014,0.0,0.003489090672232301,266.0690659847419,0.01238186507271449,0.08544469765624998,0.00546447720774645,0.09984689,0.06887585,0.007330656868721955,0.0065641325,0.08544469765624998,0.0035076750000000087,0.03097103999999999,0.0,0.008715541889462679,119.86090012169612,0.020441122180537778,5,STANDING
0.00358354369921875,0.01114060846988615,0.0244408,-0.02453928,0.00013695494252350944,0.0161120185,0.009783595313281249,0.0075600605,0.048980079999999995,1.171875,2.0800262020002362,1.227179725657915,2.280108999469015,-0.0016042518234374997,0.011608545396897867,0.01756218,-0.03342406,0.00013733195014484115,0.014314924,0.0091652976609375,0.0073972595,0.05098624,0.390625,1.7902644930036367,1.146193403644654,2.1143904831441787,0.0034357441303125,0.012543910647677634,0.02952505,-0.01486549,0.00016915403206589717,0.022994730999999997,0.0111417981509375,0.010802260000000001,0.04439054,0.390625,1.6605860397394947,1.4825336353549294,2.1392030625921707,1.0206098906249998,0.002416823839755827,1.027167,1.014804,1.0416503898790468,0.003470249999999897,1.0206098906249998,0.0017840000000000078,0.012362999999999902,0.0,1.41010198629242e-05,17066.352139360588,4.784015845193529e-05,-0.13546710625000002,0.007483393180442007,-0.1174678,-0.150936,0.018407338049241877,0.010695449999999995,0.13546710625000002,0.005658750000000004,0.03346819999999999,0.0,0.003315557266527037,301.1270949548057,0.014283934363244093,0.07896619046875,0.007028493033579888,0.09984689,0.0662862,0.006285058951469985,0.008901942499999996,0.07896619046875,0.004501600000000001,0.03356068999999999,0.0,0.009967752646851418,102.56974842471722,0.03406001352515992,5,STANDING
0.0029330078073437496,0.009601188888869109,0.0244408,-0.01641951,0.00010078536287768301,0.0147144765,0.00808804462609375,0.00662414435,0.04086031,0.390625,1.958804020670303,0.8961166586897666,2.4605335417095504,0.0035838500529687496,0.007423748414946768,0.01756218,-0.0309996,6.795602173058876e-05,0.007815724080000001,0.00665530023921875,0.00404646,0.04856178,0.0,2.4716925824597786,0.6620604178023041,2.598728413618544,-0.0037486552054687497,0.008337280862759868,0.02030669,-0.02062724,8.356266803402986e-05,0.0111259905,0.00784102936484375,0.0048273790000000006,0.04093393,0.0,2.3103449660471616,0.7998488700660459,2.6112026778956103,1.0205739375,0.0021191526341249587,1.027036,1.014837,1.0415756527121407,0.002639500000000128,1.0205739375,0.0012784999999999602,0.012199000000000071,0.0,1.0389919298731587e-05,17065.138705518708,3.683646312340344e-05,-0.13854310546875,0.004874375952867399,-0.1272049,-0.1520718,0.019217951613855075,0.007217374999999998,0.13854310546875,0.0033179999999999876,0.024866899999999997,0.0,0.002581435011799744,314.6722867528055,0.006931496512294238,0.07401286828125,0.003633565402909661,0.08334509,0.0662862,0.005491107468754885,0.005069795000000002,0.07401286828125,0.00250185,0.017058889999999993,0.0,0.005471544124721504,89.85814800093952,0.012754116094263258,5,STANDING
0.00439301099303125,0.014757130126430757,0.0405905,-0.03092159,0.00023707143515330363,0.01943692325,0.011555163671656252,0.008519282,0.07151209,3.125,2.5606618306037525,2.100183720164125,2.489265838243466,0.0015412718943750001,0.011684397974100365,0.03113045,-0.03243686,0.00013890067506955103,0.012127299,0.008892785024375,0.005468381,0.06356731,3.125,3.246490910255407,1.1573716593213181,2.781916332702518,-0.0032561141890625,0.011422808110617879,0.02262379,-0.04322442,0.00014108282474421176,0.011835944000000001,0.008959520549999999,0.006031513,0.06584821,0.0,2.9285409632478756,1.2426317256035153,2.837963007753083,1.0212077578125,0.0030478674505353288,1.02821,1.01161,1.0428745741124297,0.0035644999999999705,1.0212077578125,0.0018025000000001512,0.01660000000000017,0.0,2.5012214113382105e-05,17086.38092271215,7.298808032742547e-05,-0.13428446328125,0.006816301841024105,-0.1184379,-0.1520718,0.018078779049521328,0.007673774999999994,0.13428446328125,0.0035936000000000162,0.03363390000000001,0.0,0.005177264273888101,295.8221023903288,0.013324673323484358,0.074693664765625,0.005460918928520491,0.08763644,0.05868553,0.0056089651916634425,0.007884097500000006,0.074693664765625,0.003947190000000003,0.028950909999999996,0.0,0.01159778257737316,91.65298759452988,0.026183261934884808,5,STANDING
0.003059626775921876,0.01499477452610603,0.0405905,-0.03092159,0.00023420457909669633,0.015944378,0.011417926692046877,0.008205253874999999,0.07151209,0.390625,2.407299899703803,1.9952944848821368,2.4998631917108365,0.0024628152609375005,0.010989109569373068,0.03113045,-0.03243686,0.00012682598813719336,0.01074056775,0.0084972185953125,0.005329026,0.06356731,3.125,3.2770220469221836,1.0888205017421986,2.8946198950250928,-0.00037665276171874987,0.01139386926801217,0.02262379,-0.04322442,0.00012996212419946258,0.011380186,0.00828561186640625,0.00519091,0.06584821,1.953125,3.6064347238972254,1.0659072758621928,2.800374993954108,1.0209990234375,0.0030080077825303552,1.02821,1.01161,1.0424480539711487,0.003682500000000033,1.0209990234375,0.0018730000000001246,0.01660000000000017,0.0,2.5214132473504615e-05,17079.39480273827,7.112048222459397e-05,-0.1317973015625,0.005816566087504728,-0.1184379,-0.1511128,0.017404361140206877,0.0063453749999999864,0.1317973015625,0.0032112000000000113,0.03267489999999999,0.0,0.004645019803874261,284.87592189077293,0.01073980166183383,0.07593839664062502,0.0057083331957558,0.08763644,0.05868553,0.0057992251522226545,0.007587917499999999,0.07593839664062502,0.0037846599999999953,0.028950909999999996,0.0,0.014078502888764676,94.74756882651549,0.02795755799983378,5,STANDING
-0.0036079439222656247,0.006749749867619313,0.009651808,-0.01777415,5.857638262164039e-05,0.009057599,0.006408759115234374,0.004713401549999999,0.027425958,0.0,1.707829800458032,0.5865346134098007,2.190267363302113,-0.00014777854296875003,0.005383871842662644,0.01458686,-0.01160135,2.900791451597761e-05,0.0072372255,0.00443997711796875,0.0035805425,0.02618821,0.390625,3.0940177391672905,0.23781177953371763,2.420872651209721,0.0023212706618125,0.004213850094705424,0.01171891,-0.01437724,2.314483010604035e-05,0.0052493546925,0.0038553293834999998,0.0026219006999999997,0.02609615,0.0,2.5927244127150826,0.23374869054572098,2.4413030299853222,1.0209004375000001,0.0018649080982299736,1.025468,1.01574,1.0422411811699064,0.0027477499999999377,1.0209004375000001,0.0011959999999999749,0.009727999999999959,0.0,7.697013400475514e-06,17076.051021829437,2.902252245508473e-05,-0.13407601015625,0.0039697898365310185,-0.1238283,-0.143184,0.017992135730765076,0.006221599999999994,0.13407601015625,0.0029824500000000115,0.019355700000000003,0.0,0.0014572710589582378,294.65407766590255,0.0050151050225209085,0.076008878984375,0.004126538439069543,0.08714827,0.06666255,0.005794378003950482,0.004975169999999987,0.076008878984375,0.0025978600000000074,0.02048572,0.0,0.009031847522494108,94.79559699760073,0.015702173584075056,5,STANDING
-0.0015405563046874998,0.005642852485634789,0.008516866,-0.01338408,3.421509790254712e-05,0.009908143,0.005015122696875,0.0049151645,0.021900945999999998,0.390625,2.213853309436167,0.2997355043159206,2.438501643741637,-0.0007244964050781249,0.004207546425868601,0.009498893,-0.01160135,1.8228341966810774e-05,0.005927459249999999,0.003539669862890625,0.0031380129,0.021100242999999998,0.390625,2.409220706042161,0.15362724665003172,2.270260296764953,-6.606769298437502e-05,0.00417765164567773,0.009938884,-0.01031546,1.7457138212690125e-05,0.00569173525,0.003368267294546875,0.002902497556,0.020254344,0.390625,2.600491143151349,0.14304523756355975,2.3830847917479536,1.0211780468750002,0.0016237363156629638,1.025468,1.016271,1.0428072399390624,0.0023484999999998646,1.0211780468750002,0.0009040000000000159,0.009197000000000122,0.0,5.967407311683733e-06,17085.332221685298,2.213748728601362e-05,-0.13583301484375,0.003391985160273263,-0.127627,-0.143184,0.01846211348486992,0.0038727249999999935,0.13583301484375,0.002005350000000003,0.015557000000000015,0.0,0.0010816952373712177,302.38901444192413,0.0036983818530514426,0.074728438984375,0.003676064367083838,0.08494946,0.06542775,0.005597853042272401,0.005047402500000006,0.074728438984375,0.002482075000000007,0.019521709999999998,0.0,0.007204195643564589,91.604522567182,0.013148692999732568,5,STANDING
0.0006062141996875,0.003758078696049604,0.008516866,-0.006600863,1.449065114160465e-05,0.006107606,0.0032186290532812503,0.0029899910450000003,0.015117729,1.5625,3.8544418701559313,0.12173500996597823,3.053843337173767,0.0011323722402343751,0.0038260394316993536,0.01228363,-0.008803018,1.5920844623371728e-05,0.005026325,0.0031955214144531252,0.00241678115,0.021086648,0.390625,3.542812735958219,0.14093989668494808,2.924889829074908,-0.00119966587003125,0.004029170335572207,0.007148675,-0.01031546,1.7673411792772883e-05,0.00615603175,0.0034118934544062497,0.0031206095,0.017464135,0.390625,3.365464247183372,0.15657062047112877,2.8548347295081125,1.0209475546875,0.0016794778709123422,1.026011,1.016118,1.0423367300683046,0.002510500000000304,1.0209475546875,0.0011535000000000295,0.00989299999999993,0.0,8.789597761645592e-06,17077.621880614846,2.404035118314995e-05,-0.13461917109375002,0.002958131066604605,-0.1274467,-0.1418027,0.018131071765375546,0.003972300000000012,0.13461917109375002,0.002057650000000022,0.014356000000000008,0.0,0.0010992960429805315,296.9878130061053,0.00300100156252235,0.07539410390625,0.003993921496146956,0.08494946,0.06542775,0.005700222312743806,0.005826839999999986,0.07539410390625,0.0029490950000000057,0.019521709999999998,0.0,0.00742570902994835,93.2617863114197,0.015055203144083568,5,STANDING
0.017663580413281248,0.021181263219968268,0.06638039,-0.06081438,0.0007606479846100336,0.02110283325,0.02238459141953125,0.010769806500000001,0.12719477,0.0,0.9421000732190766,8.78771005637596,1.5880011096857645,0.1044727909375,0.046330458461787995,0.238885,0.04532233,0.013061075427550046,0.0611867525,0.1044727909375,0.03066621500000001,0.19356267,0.0,0.14692407519584152,196.4126500104884,0.4821619492121171,-0.11545152656249999,0.044824087907911286,-0.05209834,-0.2249153,0.015338253842387801,0.063035635,0.11545152656249999,0.030241965000000003,0.17281696000000002,0.0,0.11004410595484312,234.84629347057415,0.3916597582051097,1.0081494203124999,0.003434782911270542,1.015949,0.9974581,1.0163770514100774,0.0038487499999999564,1.0081494203124999,0.001995499999999928,0.018490899999999977,0.0,2.902423678389182e-05,16652.2249787711,9.453472628247927e-05,-0.25099851093750003,0.005722148833428889,-0.2350935,-0.270837,0.0630329954801142,0.005852449999999981,0.25099851093750003,0.003004349999999989,0.035743499999999984,0.0,0.0007149628143635545,1032.464369027446,0.003058635626668177,-0.011182735817968751,0.004765257839388988,0.009428611,-0.02290218,0.0001477612626503394,0.00450232075,0.01147118713046875,0.0024247265,0.032330791,0.0,0.3935033909370085,2.234904061825003,0.534942972083438,5,STANDING
0.012235944784375,0.011451895023921205,0.03352284,-0.008866269,0.00028086424440518503,0.01844493775,0.013498027278125,0.0084737145,0.042389108999999994,0.0,0.38182514083890073,3.5273368297205634,1.0397592189324316,0.0460711500390625,0.026970085620713322,0.09940157,0.005060319,0.002849936384310416,0.041309534999999994,0.0460711500390625,0.022656495,0.094341251,0.0,0.17184488520882021,40.73533622508437,0.6380782128584924,-0.05013406490625,0.03400718044535398,-0.005976633,-0.1138757,0.003669912785866954,0.0565730275,0.05013406490625,0.03287589,0.107899067,0.0,0.178768879118932,50.654829724007946,0.718722487499131,1.0093213359375,0.002304094196606004,1.015505,1.001638,1.0187348680287267,0.002789999999999848,1.0093213359375,0.00141099999999994,0.013867000000000074,0.0,1.3867956637108421e-05,16690.908587692564,4.469313068935409e-05,-0.2478147859375,0.00460161036134251,-0.2365285,-0.257226,0.06143334294716656,0.006971524999999978,0.2478147859375,0.003131549999999983,0.020697500000000008,0.0,0.0002449331719270573,1006.3504274306604,0.0019546172122523226,-0.0135884849609375,0.00522145784381054,-0.00435058,-0.02615563,0.00021191054554831523,0.0066325720000000015,0.0135884849609375,0.0025658224999999995,0.02180505,0.0,0.2185403993449414,3.2486410703778557,0.43392837017781705,5,STANDING
0.01471535150625,0.01113781256301013,0.03335466,-0.008866269,0.00034059243864124043,0.018393334750000004,0.0158339734625,0.007902254999999999,0.042220929000000004,0.0,0.25536360183583967,4.564085070625257,0.7915454676276383,0.012675679117734377,0.015591159293790995,0.04627664,-0.0180936,0.0004037570892201326,0.023023544675,0.015936171076015623,0.01197024535,0.06437024,0.0,0.7018236225809689,4.6241191416142255,1.5217467903026347,-0.01124142163046875,0.014549422448920239,0.01828532,-0.05081937,0.0003380552538711149,0.019639987699999997,0.01476769163671875,0.008955684,0.06910469,0.0,0.8738037873579236,3.8049746854356883,1.663466649440192,1.009790109375,0.002360561715574725,1.015505,1.004966,1.0196816372431874,0.003241749999999932,1.009790109375,0.0015899999999999803,0.010539000000000076,0.0,1.4595319975698332e-05,16706.41829678797,4.625279197036793e-05,-0.24547545703125,0.004853871665222573,-0.2347644,-0.257226,0.06028176007484352,0.007280124999999998,0.24547545703125,0.003691449999999985,0.022461599999999998,0.0,0.00035998656155144176,987.4633539950805,0.0022451835892090596,-0.015921801078125002,0.005263374986848732,-0.00435058,-0.02887809,0.00028120686582356735,0.007608127500000001,0.015921801078125002,0.0037089899999999997,0.02452751,0.0,0.13389811828275663,4.380349510436771,0.3256699758426456,5,STANDING
0.015418441789062499,0.011063261662419667,0.03335466,-0.01477824,0.00036012410581387364,0.014568094750000003,0.0171014656640625,0.0067447850000000005,0.0481329,0.0,0.3043677870618554,4.897753341005453,0.8250955866774475,-0.001545000670546875,0.009809865251083315,0.02448806,-0.02052372,9.862048331640219e-05,0.006212953675,0.0073306268674218755,0.0031185655999999996,0.04501178,0.78125,1.9422583183650504,0.827518327474808,2.3800552684017253,0.0036163485570312503,0.010880611013433177,0.02390865,-0.02788981,0.00013146567291158533,0.0102377173,0.009622617949218749,0.0052246924,0.051798460000000004,0.390625,1.502227322513587,1.184176411814431,2.3131583149863935,1.0102562968750002,0.0021634375437287858,1.015463,1.00334,1.0206224658375938,0.0027839999999998977,1.0102562968750002,0.001403500000000113,0.012123000000000106,0.0,1.371992875665434e-05,16721.840137941592,3.9576526044978656e-05,-0.24463933359375,0.0033976519302002283,-0.2347644,-0.2537182,0.05985994757983289,0.003370749999999978,0.24463933359375,0.0016496499999999886,0.018953799999999993,0.0,0.0003536878356315439,980.650820189839,0.0012427814615164838,-0.0162415676015625,0.003970323326397135,-0.00423016,-0.02887809,0.0002795519854722579,0.004803075,0.0162415676015625,0.002397660000000001,0.02464793,0.0,0.15393990372349683,4.45108745152171,0.22182693629090822,5,STANDING
0.00312758665234375,0.009249131036633827,0.02461655,-0.0154806,9.53282232007419e-05,0.014846586500000002,0.008098615202343751,0.007581787499999999,0.04009715,0.390625,1.5102696543702998,0.8611554096011838,2.1467233552761336,-0.0060732518828125,0.003758975700804433,0.002966135,-0.02052372,5.101428675132376e-05,0.004796966749999999,0.0061641065578125,0.0024124069999999992,0.023489854999999997,0.0,0.6957773615804987,0.7200669132108701,0.9012469802052459,0.00951085225,0.004435488782711016,0.02390865,0.001359982,0.00011012987126288531,0.0053333569999999995,0.00951085225,0.0027065495,0.022548668,0.0,0.3709168609760124,1.6432020082187635,0.6152365670257877,1.010144,0.0022085888488184158,1.014069,1.002174,1.0203957786007032,0.0028717499999999507,1.010144,0.0014260000000000383,0.011895000000000211,0.0,1.2631039045952704e-05,16718.124477127843,4.0699796262195344e-05,-0.24523304609375002,0.002857038063791501,-0.2382996,-0.2517866,0.06014740956291727,0.0031933749999999983,0.24523304609375002,0.0017634000000000122,0.013487000000000027,0.0,0.0002895099706472923,985.3882921806393,0.0009242895365959492,-0.016717997835937498,0.003560294653090207,-0.00423016,-0.02538793,0.0002921671496592337,0.004951970000000002,0.016717997835937498,0.002415219999999999,0.02115777,0.0,0.1201735484612799,4.6830280810157126,0.17502519572267006,5,STANDING
-0.00184305352109375,0.005248249416039505,0.01197573,-0.0154806,3.094096821457507e-05,0.007593546,0.00467025093203125,0.0031267400000000002,0.02745633,1.5625,2.386806304056103,0.2812992056110964,2.3628122513008636,-0.00453180617703125,0.0038752191543948416,0.003829208,-0.01399862,3.555459072076727e-05,0.0061166325,0.0050608261004687505,0.003008996,0.017827828,0.0,0.6925270898307074,0.4595059754007535,1.2188757735865838,0.00637998093246875,0.004574604754071023,0.01809767,-0.003725647,6.163116535463402e-05,0.006734155000000001,0.00664932480903125,0.0033731115000000004,0.021823317,0.0,0.542742136565631,0.8383312483132098,0.9352808388735675,1.0096904453125,0.0021197893977372645,1.013794,1.002174,1.0194792888624453,0.0025722500000000537,1.0096904453125,0.0013579999999999703,0.011620000000000186,0.0,1.1176281456497705e-05,16703.11185791692,3.801341582165039e-05,-0.24501904687499998,0.003001297733818068,-0.2382996,-0.2514682,0.060043341119620466,0.003565325000000008,0.24501904687499998,0.001810100000000009,0.013168599999999975,0.0,0.0002894541003818482,983.6763149029082,0.0009948373575206443,-0.017784075625,0.003353543624990621,-0.01012489,-0.02557545,0.0003275196006804344,0.004906045000000001,0.017784075625,0.00249845,0.01545056,0.0,0.0969724694950327,5.27396847700675,0.14426548880127635,5,STANDING
-0.002207139922734375,0.003881650788804769,0.006801737,-0.009453597,1.9938679484756585e-05,0.0051763327,0.0039212180602343745,0.0024369373,0.016255334,0.0,2.2545751823755986,0.20325258454272382,2.238308753395963,-0.0019717160275781248,0.0033543817896148176,0.005208994,-0.01017049,1.5139541283907968e-05,0.005082810174999999,0.003084673090546875,0.0025796160000000003,0.015379484,0.0,2.203320969924396,0.15587091047478557,2.282200044103172,0.0032931694738750003,0.0030818251745107143,0.01042214,-0.004894007,2.0342611589910134e-05,0.0041477367499999996,0.0037462569645,0.002130944,0.015316146999999999,0.0,1.930219119740967,0.2554898297638267,1.634043475049017,1.0097765625,0.0020538148565154906,1.015896,1.004961,1.0196529243297812,0.0026289999999999925,1.0097765625,0.0012965000000000337,0.010934999999999917,0.0,1.176024466455294e-05,16705.958957379888,3.565648610084856e-05,-0.24357020546875002,0.0026354269289549106,-0.2373351,-0.2505096,0.05933339046718695,0.0037557750000000167,0.24357020546875002,0.0018405499999999964,0.013174500000000006,0.0,0.00029662326804293424,972.0613815841378,0.0008080132382076191,-0.0176257101015625,0.003581075280965856,-0.006262776,-0.02557545,0.000323489756752267,0.004934179999999998,0.0176257101015625,0.0025568450000000003,0.019312674,0.0,0.11397082083374613,5.195004088594838,0.16613705787500496,5,STANDING
-0.0015511572224999998,0.0037878536768266593,0.007876131,-0.0117727,1.6753924205963157e-05,0.00585058875,0.00335388083859375,0.0029277749999999996,0.019648831,0.0,3.231091316908497,0.15696107493743047,2.854418536708982,-0.002354368136484375,0.0030337037885521385,0.005208994,-0.01086651,1.4746407998768507e-05,0.004188134275,0.0031191507978906245,0.0021036085,0.016075503999999997,0.0,2.4442996894633944,0.16621138636101754,2.143323436928913,0.003652468692578125,0.0033020025039671146,0.01249668,-0.005267949,2.4243748086468455e-05,0.00436342625,0.004108361957421875,0.002177685,0.017764629,0.0,1.6246013275640319,0.30789235202725257,1.5433817249301063,1.0097259765625002,0.0020955076259437004,1.015896,1.003571,1.0195509388973047,0.0026012499999998884,1.0097259765625002,0.0012990000000001611,0.01232499999999992,0.0,1.2584068338777967e-05,16704.286611805408,3.753810192200084e-05,-0.24395393671875,0.00309745261318351,-0.2368059,-0.2523957,0.0595231174532668,0.0041488500000000095,0.24395393671875,0.0021307500000000007,0.015589799999999987,0.0,0.0004276794009506377,975.1481647299003,0.0010885126931818147,-0.01676875578125,0.003536840155757102,-0.004097803,-0.02508287,0.0002937004087385812,0.0047912200000000005,0.01676875578125,0.002550114999999997,0.020985067,0.0,0.136129045456322,4.7095125253940475,0.17518072141573507,5,STANDING
-0.0004938278339843749,0.003356447735049928,0.01130631,-0.0117727,1.1509607327739488e-05,0.0032314005,0.0024554612082031252,0.0016875122999999998,0.02307901,3.125,4.2996533943582715,0.09628451054293753,3.1790825997778116,-0.0008034543046875,0.0038437524049990427,0.007734328,-0.01086651,1.54199713706568e-05,0.00532899125,0.00329191718125,0.0027771755000000004,0.018600838,0.390625,3.2823471668615385,0.13161653776210294,2.593362679286293,0.001179929425390625,0.0046616697244277,0.01249668,-0.008749417,2.3123398068548483e-05,0.0074280974999999996,0.004032573490234375,0.0037784155,0.021246097,0.390625,2.6782128343507314,0.2008356907627299,2.578338629697842,1.009357921875,0.0020939637301709657,1.014231,1.003019,1.018807799135922,0.0021759999999999557,1.009357921875,0.0011385000000001533,0.011212,0.0,1.2153889524089802e-05,16692.111061713367,3.6739900326633154e-05,-0.24623629218749998,0.0035258271987225163,-0.2368059,-0.2544247,0.06064474304768312,0.004406275000000015,0.24623629218749998,0.0022261000000000086,0.01761879999999999,0.0,0.0005657065731995197,993.5016389031246,0.0013650836953934531,-0.0176614638046875,0.003945313095107007,-0.004097803,-0.03008089,0.0003274927991427095,0.004897362499999999,0.0176614638046875,0.00256143,0.025983087,0.0,0.12462765213537903,5.238129810202861,0.1904382010821724,5,STANDING
0.00046817678570312506,0.003134685834596496,0.0113767,-0.006184605,1.0045444784291239e-05,0.00327986475,0.0022726118528906248,0.0016426675699999999,0.017561305,1.171875,4.243481995031757,0.08408824176561264,3.0341974159591167,0.002322596571171875,0.003369467583110329,0.009313939,-0.00460703,1.674776662605071e-05,0.0046884374175,0.0035343194977343747,0.0022767484500000002,0.013920969,0.0,2.4479685272413505,0.18138929260407152,2.2901270060405,-0.003220978975,0.004119346448139689,0.005568408,-0.01306043,2.7343720717193122e-05,0.00500692195,0.0042544287796875,0.0024180645,0.018628838,0.0,1.829300576608868,0.30902573214233325,2.0630139944840207,1.009828625,0.0018796226183731616,1.014014,1.003019,1.019757384850578,0.0018100000000000893,1.009828625,0.0009774999999999645,0.010994999999999866,0.0,1.0166218262179818e-05,16707.676053107338,3.043066024503775e-05,-0.2469195125,0.003377316483471936,-0.2373135,-0.2544247,0.06098065191986719,0.004024949999999999,0.2469195125,0.0020273999999999848,0.017111199999999993,0.0,0.0004807809469508425,999.0135612818265,0.0012441522204897592,-0.018290511953125,0.004336613458305314,-0.01015918,-0.03008089,0.00035334904379416326,0.00662772,0.018290511953125,0.0033079850000000003,0.01992171,0.0,0.1252642137318044,5.635216192561838,0.21269632306882907,5,STANDING
0.002799266545390625,0.004946545866770994,0.01334825,-0.01266184,3.2304209204212365e-05,0.007208410175000001,0.004380418507890625,0.003126007,0.02601009,0.0,1.6457973745003545,0.3288320113252169,2.286087500597285,0.001233596877875,0.003778824843632793,0.009313939,-0.01110292,1.580127845595935e-05,0.005564244,0.0032695610133749997,0.002798272,0.020416859000000002,0.0,3.5184614763356925,0.14191057744837965,2.9492726531910987,-0.0024239185365625,0.005044194158640115,0.01226595,-0.01306043,3.131927578195035e-05,0.0073132128499999996,0.00446771670875,0.0036606265,0.02532638,0.0,2.4328011040927984,0.30469926382712237,2.411970697539599,1.0106915156249998,0.0018852491835645664,1.015918,1.005542,1.0215008939208436,0.0025804999999998746,1.0106915156249998,0.001231500000000052,0.010376000000000163,0.0,9.834547290671708e-06,16736.241532054613,2.9922477438969232e-05,-0.24391155546875,0.004111261417527633,-0.2331843,-0.2538186,0.05950974936162835,0.005727750000000031,0.24391155546875,0.003024349999999995,0.020634299999999994,0.0,0.000493487503678765,974.8692685491038,0.001762902243694873,-0.016629518179687497,0.004428951130668339,-0.002676076,-0.02704317,0.0002961564830064054,0.004743665000000001,0.016629518179687497,0.0027186999999999992,0.024367094,0.0,0.1431678657602396,4.6915367867877,0.2505728348375771,5,STANDING
0.00031161400359374985,0.007295795947193455,0.01334825,-0.017479,5.3325741790320163e-05,0.0099312015,0.00581456634421875,0.005337667,0.03082725,0.390625,2.166362434106302,0.4376574305512211,2.3660565569740433,-0.00043564620220312505,0.003963506305477256,0.0104444,-0.01110292,1.5899169847051972e-05,0.005272103,0.0031518350667343754,0.0026368955,0.021547320000000002,0.390625,3.980435991965567,0.13180774265591325,2.9367310914597415,0.0009825199477343752,0.004569018470668006,0.01226595,-0.01057889,2.184127523300136e-05,0.0058695735,0.003733996487734375,0.0029670955,0.022844839999999998,0.78125,3.8342762280036844,0.18684186392590085,3.0637586221250825,1.010819765625,0.0020040358907261052,1.015918,1.00465,1.0217606147380311,0.0027494999999999603,1.010819765625,0.0013450000000000406,0.011268000000000056,0.0,1.1498451958154745e-05,16740.49301164208,3.4104996263535255e-05,-0.24218985625,0.003053937499277315,-0.2331843,-0.2497032,0.05866525300464516,0.004251599999999994,0.24218985625,0.002059499999999992,0.016518899999999975,0.0,0.0004387375039838983,961.0951032004521,0.0010822384915657752,-0.0159467070234375,0.003940362393022354,-0.002676076,-0.02774195,0.00026982392067969577,0.0044768249999999985,0.0159467070234375,0.0020022799999999995,0.025065874000000002,0.0,0.16961666411779847,4.29362761165367,0.23219299587443715,5,STANDING
-0.00294422857890625,0.006607590123553441,0.01072059,-0.017479,5.232872916572929e-05,0.007867236175,0.00576437914921875,0.004123296,0.028199590000000004,0.0,2.194518099474205,0.49972101764359034,2.612622639868449,-0.00016514982124999999,0.003927423905870541,0.0104444,-0.009841199,1.545193299986232e-05,0.004926309,0.0030553568271875,0.002518812,0.020285599,0.390625,4.701815246986075,0.1268057446773953,2.980182489993589,0.0013644163672656248,0.003728104792133192,0.01161285,-0.01132028,1.5760397364388794e-05,0.003839200325,0.0030612746135156247,0.0019498308,0.02293313,0.0,4.000368266366377,0.14436190661481,3.0613304364200955,1.0104279218749999,0.001663144323494343,1.016228,1.00465,1.020967351353672,0.0019612499999999145,1.0104279218749999,0.0009375000000000355,0.011577999999999866,0.0,9.309300298406059e-06,16727.50642865326,2.3847995578507378e-05,-0.24257717343750002,0.0026973704050914445,-0.2363509,-0.2507422,0.058850960880029224,0.0029730749999999917,0.24257717343750002,0.0015393000000000212,0.014391300000000024,0.0,0.00035721534445355506,964.1545448366148,0.0008656270489637188,-0.014805754078125,0.003977911517916998,-0.005414703,-0.02774195,0.00023503413386629176,0.00542603,0.014805754078125,0.002710994999999999,0.022327247,0.0,0.195803358988016,3.7211712734795572,0.26505951633202585,5,STANDING
-0.0194046051953125,0.024803471066742404,0.07282671,-0.06115461,0.0009917508797446764,0.008283027499999998,0.0292349721171875,0.0040993049999999975,0.13398132000000001,0.0,0.8926715730955179,11.20978622436113,1.7067116156153939,-0.0941628840625,0.023198747076599056,0.03468009,-0.164254,0.00940483060089183,0.024539262500000006,0.09489967140625,0.011391915000000002,0.19893409,0.0,0.10092097147650074,149.68169613738783,0.2159601619055779,0.063357475046875,0.042119094478895044,0.09443355,-0.1179507,0.005788187764037475,0.024240624999999995,0.0729541811875,0.009753569999999996,0.21238425,0.0,0.42285529096866714,80.30564018151632,0.9324692463657871,0.9264601265625,0.0057159389539181964,0.9403026,0.9024631,0.8583610380683283,0.005544349999999976,0.9264601265625,0.002709549999999894,0.037839500000000026,0.0,9.459213134635654e-05,14063.11964604256,0.00028310190686995273,0.16874141171875,0.007473026854844163,0.1871752,0.1398434,0.028529510159209924,0.004935174999999986,0.16874141171875,0.0026522500000000088,0.04733180000000001,0.0,0.0040668757194430236,466.97008864216406,0.010701898532598167,0.37832932421875004,0.008147775441720904,0.4067535,0.3659201,0.14319946380846477,0.006501075000000023,0.37832932421875004,0.0030725000000000058,0.040833399999999964,0.0,0.0006323253714587568,2345.6362476278828,0.002765897120654637,4,SITTING
-0.021383468203125,0.006700991171062047,-0.007324795,-0.03725248,0.0005021559950687094,0.01044608,0.021383468203125,0.005335130000000001,0.029927684999999996,0.0,0.08743737679035103,7.859527166900106,0.2791786627674777,-0.07442173312499999,0.020785345762675066,-0.03048957,-0.1199051,0.005970624959802676,0.0386841475,0.07442173312499999,0.018079699999999997,0.08941553,0.0,0.060416839531986836,94.28423220407167,0.22845251089505944,0.07113201546875,0.01719301136723831,0.09443355,0.03342644,0.005355363264520475,0.027764407500000005,0.07113201546875,0.010424220000000005,0.06100711,0.0,0.027212913046639406,85.32082544519359,0.16541878336562468,0.92869599921875,0.0026387286135293978,0.9358822,0.9230763,0.8624832218536084,0.0037681249999999,0.92869599921875,0.001867400000000019,0.012805900000000037,0.0,2.247460563056024e-05,14130.86806902499,6.682670206324299e-05,0.16787158515625,0.0029048895412812667,0.1759646,0.1598397,0.02818930748611914,0.004075749999999989,0.16787158515625,0.002099599999999993,0.016124899999999998,0.0,0.0005737726692000106,461.7844867597545,0.001892883604998832,0.3749473578125,0.003484213304737202,0.3844061,0.3659201,0.1405976608729278,0.004132850000000021,0.3749473578125,0.002042499999999975,0.018485999999999947,0.0,0.00024985144092845265,2303.452629510699,0.0006167307484860292,4,SITTING
-0.01210499642734375,0.005470382058091916,-0.0005715414,-0.02260026,0.00017645601836749892,0.008566538749999998,0.01210499642734375,0.004419051500000001,0.0220287186,0.0,0.1749720335234187,2.6459313374603535,0.50059154129305,-0.041721848828125,0.018602533286077836,-0.01496626,-0.08078861,0.0020867669142965494,0.027068100000000005,0.041721848828125,0.013756795000000002,0.06582235,0.0,0.12524466360398087,31.355228755219205,0.4560710411990989,0.042792488906249995,0.018273476667267356,0.08379378,0.01659753,0.0021651170563006935,0.026999987500000006,0.042792488906249995,0.013629520000000001,0.06719625,0.0,0.11478535830627913,32.738381949745744,0.42990934653807206,0.9281175492187501,0.00219430887297103,0.9346583,0.9214067,0.8614070001592489,0.003134999999999999,0.9281175492187501,0.0015595500000000206,0.01325160000000003,0.0,1.633775473654451e-05,14113.252846211555,4.7769339523860486e-05,0.16851103515625,0.0029597495431832425,0.1744584,0.1598397,0.028404729086789298,0.004660974999999984,0.16851103515625,0.0023987999999999787,0.014618700000000012,0.0,0.0005723652212979871,465.31132184279005,0.0019155762261979178,0.37512042343749996,0.003953856084659722,0.3829644,0.3638358,0.1407309650578675,0.004929724999999996,0.37512042343749996,0.0026411000000000073,0.019128599999999996,0.0,0.00031559411282042275,2305.608068519013,0.0007774819975923607,4,SITTING
-0.010372026851562502,0.23513206057032113,0.5710075,-0.7163907,0.0553946648490547,0.011577376425,0.134158698565625,0.005859386499999999,1.2873982000000002,0.78125,1.1615321347269971,454.69594610349066,1.6157680957752907,0.043195859809375,0.38353093421768547,1.134195,-0.8132629,0.14896185980656174,0.030120917499999997,0.2185262698875,0.014299270000000003,1.9474579,0.78125,1.121291240254711,1235.5847851759747,1.683275363933624,-0.004316794205468747,0.21004881594761637,0.5143666,-0.5680432,0.044139139793207986,0.028982107,0.12397283682578125,0.014417638,1.0824098,0.78125,1.2102038098113905,361.748403959325,1.7499209550725043,0.91742662734375,0.06048355705394328,1.069117,0.6960658,0.8453298772332255,0.006262125000000007,0.91742662734375,0.0023305999999999605,0.37305120000000014,0.0,0.004876386153160052,13819.920271925928,0.020415843000548654,0.19544655546875,0.04816161226373787,0.3354184,0.1384194,0.04051889694044179,0.028628474999999987,0.19544655546875,0.0038261500000000004,0.196999,0.0,0.061467562875128084,644.862472744634,0.19826260049136435,0.36624726953125,0.07588590968207282,0.5639844,0.1615828,0.1398957337273718,0.012130299999999983,0.36624726953125,0.005770950000000052,0.4024016,0.0,0.03307840139274315,2244.881213389635,0.1439296251312479,4,SITTING
0.024599318202343755,0.24405959924397672,0.5710075,-0.7163907,0.06017021443915069,0.1023532235,0.16118667819921875,0.035077933,1.2873982000000002,0.78125,0.8958722873255529,497.87164793242414,1.4774435292948267,0.042226722028281254,0.3916753571952452,1.134195,-0.8132629,0.15519268148727666,0.26816745000000003,0.2554985111060938,0.117727145,1.9474579,1.171875,1.1378422471993248,1285.9474165692388,1.6713798593753029,-0.06043341967421874,0.2388383611629962,0.5143666,-0.5680432,0.06069596097654606,0.31887713500000003,0.18493572041953124,0.11972379999999999,1.0824098,0.78125,1.037693897090841,527.1403400472412,1.4472646897899992,0.84332482265625,0.0918104987689046,1.069117,0.6960658,0.7196259241923906,0.15889352499999998,0.84332482265625,0.07256889999999999,0.37305120000000014,0.0,0.0072322919631868455,11721.302109772894,0.04467123852921531,0.31423705468749996,0.10670028065712844,0.4702471,0.1384194,0.11012987643098483,0.22256755,0.31423705468749996,0.11047989999999999,0.33182769999999995,0.0,0.06266878336371143,1711.1107989958944,0.2881102145016175,0.41913882968750005,0.1005589174764642,0.5639844,0.1615828,0.18578945443584546,0.11341029999999996,0.41913882968750005,0.0660599,0.4024016,0.0,0.025210117002730955,2961.136790556741,0.16701094466086325,4,SITTING
0.023801117290625,0.06611433145768646,0.35372,-0.02735073,0.004937598008378919,0.05218681,0.038329065084375,0.0180975885,0.38107072999999997,0.0,2.272732668842316,45.1120283199999,2.62114684229332,-0.037183543945156244,0.08053012375802142,0.2714462,-0.1983637,0.007867716772803611,0.03842471749999999,0.07318664738265626,0.01780938499999999,0.4698099,0.0,1.1801570883007022,75.78319146685543,2.006145616615756,-0.011475301718749997,0.1369591528909225,0.1113087,-0.3611059,0.01888949211013543,0.0527239075,0.10560420734374999,0.016273475000000003,0.47241459999999996,0.390625,0.9630133211432331,155.83032013787775,1.5338193098028432,0.778603784375,0.02911902090930653,0.874014,0.705209,0.6070717704217881,0.01242215000000002,0.778603784375,0.006499950000000032,0.16880499999999998,0.0,0.0015608705938698617,9939.31785512836,0.007331902274324807,0.42112247187499996,0.03322386024098949,0.4702471,0.3064895,0.17844796120742296,0.014471949999999956,0.42112247187499996,0.006131849999999994,0.16375759999999995,0.0,0.006228347951483191,2914.650714107872,0.028197907667118657,0.4677963890625,0.028421638305100822,0.5582344,0.3965745,0.21964125114385985,0.02918917500000001,0.4677963890625,0.007678600000000008,0.16165990000000002,0.0,0.004636898923287411,3591.986463695336,0.018000645018467855,4,SITTING
-0.0154771018828125,0.004974388068455033,0.006222564,-0.02735073,0.000264285219346546,0.0048521725000000016,0.0156079595703125,0.002276545000000002,0.033573294000000004,0.0,0.20121418062115684,4.127432069187207,0.34404515650755263,-0.0353492692265625,0.018624326605833495,-0.002610486,-0.1373512,0.001596436376372756,0.019123349999999994,0.0353492692265625,0.008768155,0.134740714,0.0,0.5398831403436612,23.316511158043028,0.7458166660350063,0.0517038584375,0.012929602316971208,0.07744526,0.02851897,0.0028404635934000675,0.019437302500000003,0.0517038584375,0.010301600000000005,0.04892629,0.0,0.043323966085587556,45.16874659839453,0.18769209553728308,0.778331659375,0.0034210828397790707,0.7856816,0.7676861,0.6058118757932377,0.003518000000000021,0.778331659375,0.0018219500000000166,0.017995499999999942,0.0,4.837813162521149e-05,9925.525895457848,0.00015001366603332748,0.43380584296875,0.0038438458237381613,0.4489616,0.4235446,0.18820228454454446,0.003040374999999984,0.43380584296875,0.0014753999999999878,0.025417000000000023,0.0,0.0002081825898889317,3083.3851925292647,0.0005577911182607675,0.45340585234375,0.003931088497973654,0.4662367,0.4444582,0.20559232039634132,0.005104525000000026,0.45340585234375,0.002204600000000001,0.02177849999999998,0.0,0.00015666500153611613,3368.297982865222,0.0005241127251163503,4,SITTING
-0.014317010546875002,0.0033090641594463064,-0.007281921,-0.02059122,0.00021592669661066208,0.005689732500000001,0.014317010546875002,0.002928105000000001,0.013309299,0.0,0.07100778106258766,3.4480528159245427,0.178795656357327,-0.017571495132812504,0.009214747487537405,0.00757058,-0.04030338,0.0003936690124615303,0.0139760525,0.0176897854453125,0.0059954480000000004,0.04787396,0.0,0.36870650045545933,5.754324951751293,0.6532365984037001,0.031101473609375003,0.013265437042582508,0.05846808,0.008730662,0.0011432734806053695,0.023128262499999996,0.031101473609375003,0.01170832,0.049737418,0.0,0.10981544698320106,17.290033367402785,0.41649615366976106,0.77835975546875,0.0022486282926281053,0.7851748,0.7706567,0.6058489652625707,0.0029616249999999678,0.77835975546875,0.0015368499999999785,0.014518099999999978,0.0,2.5169489822379403e-05,9926.188025419075,6.912895825652581e-05,0.43377549218750006,0.002295245137051314,0.4409072,0.4267952,0.18816644577274702,0.00248777499999997,0.43377549218750006,0.00131929999999994,0.014112000000000013,0.0,8.748352015572775e-05,3082.8759015113496,0.00021772754659972116,0.45222259765625,0.003395680727512177,0.4613826,0.4446757,0.20451680847856976,0.004082224999999995,0.45222259765625,0.00201345,0.01670689999999997,0.0,0.00012170204471525092,3350.708934758082,0.0004100948470207968,4,SITTING
-0.008026776628125,0.004527771067406271,0.002578788,-0.01810745,8.492985387665506e-05,0.0070540515,0.0080849254484375,0.0034612604999999996,0.020686238,0.0,0.2685376454041696,1.223557796643845,0.6555403787747035,-0.007522930771484375,0.006393687901254123,0.01453529,-0.01935364,9.747373237118986e-05,0.0082951415,0.008713343154296876,0.0037847209999999996,0.03388893,0.0,1.3660618174862273,1.2621921527224396,1.3770312791560506,0.01392440072265625,0.008608671886280346,0.0346931,-0.007972494,0.0002679981671307435,0.01104768075,0.01422756026484375,0.005700293500000001,0.042665594,0.0,0.33481447457558733,3.783904349479883,0.8119600723896236,0.7780774515625,0.0020426713823058517,0.7830879,0.7706567,0.6054086931363707,0.002494774999999949,0.7780774515625,0.0011063999999999519,0.012431199999999976,0.0,1.4204859097511613e-05,9918.98184949737,5.683751380062068e-05,0.43399897734375004,0.0022029581839048983,0.438958,0.4267952,0.18835996536018088,0.0026681249999999657,0.43399897734375004,0.0013917499999999972,0.01216280000000003,0.0,7.588032101053602e-05,3086.049916559397,0.00019734498892067954,0.451276503125,0.003388679666019862,0.4610676,0.4442089,0.20366196542260703,0.004434075000000037,0.451276503125,0.00221360000000001,0.016858700000000004,0.0,0.00013448248907655012,3336.7035755042857,0.0004083539692315769,4,SITTING
-0.0033459591514843744,0.0024759554547461628,0.003037348,-0.009441856,1.7325798057289315e-05,0.0034562727500000003,0.003624841101484375,0.001674801,0.012479204,0.0,1.0886148084477072,0.23365973636277898,1.155414274731141,-0.00012898187964062506,0.007403997052764534,0.02285444,-0.01745321,5.483580868262153e-05,0.010763142,0.005921254394578125,0.0046650933,0.04030765,0.390625,3.628038101764489,0.44936250361037156,2.5815471996324417,0.0035190524142968754,0.006560806803761194,0.01891969,-0.009819652,5.542791581084784e-05,0.009799828,0.005785788502890625,0.004534042,0.028739342,0.0,1.6139635000253605,0.5555577863567475,2.0691448420981837,0.778354190625,0.0022543215265850196,0.783101,0.7731562,0.6058403280290441,0.002234950000000069,0.778354190625,0.0011219500000000382,0.009944800000000087,0.0,1.8989902729157462e-05,9926.046307010849,6.894089173472567e-05,0.43409094609375004,0.0023577519826859946,0.4430884,0.4290432,0.18844050847497884,0.0025421999999999945,0.43409094609375004,0.001388000000000028,0.01404519999999998,0.0,9.052581154934418e-05,3087.363754357811,0.00022699165719607142,0.450661371875,0.002968846079812025,0.459491,0.4438996,0.20310448614730264,0.0036643749999999975,0.450661371875,0.0018292999999999782,0.015591399999999977,0.0,0.00012788838598547732,3327.591696364016,0.00032604178730108896,4,SITTING
-0.0005436304092968751,0.003132009232618534,0.006621113,-0.00843112,1.0105015855120028e-05,0.00471560075,0.002637991012421875,0.002428137,0.015052233,0.390625,3.021044570822807,0.08520437093009207,2.594087593455375,0.0009225426366718751,0.006406947895380611,0.02285444,-0.01509844,4.190006625059953e-05,0.006906588,0.004967911986078125,0.00382776945,0.03795288,0.390625,4.24839641686568,0.3502222081978019,2.698273976575499,-0.0006388664337500001,0.00410276427253379,0.01058067,-0.01167465,1.7240824996152164e-05,0.005886738000000001,0.00336386972328125,0.0030045558,0.022255320000000002,0.390625,4.707206586897552,0.14458103279324125,3.0857986139579894,0.77801465625,0.002530204940740663,0.7857266,0.7729414,0.6053132072768478,0.0030814999999999593,0.77801465625,0.0015399500000000121,0.012785200000000052,0.0,2.4898131773223563e-05,9917.399143413702,8.576386314933395e-05,0.43491191953124997,0.002620884775911162,0.4430884,0.4296449,0.18915524678736506,0.0034389499999999407,0.43491191953124997,0.001825300000000002,0.013443499999999997,0.0,0.00010082508813645515,3099.063292430748,0.0002754077416900241,0.45093948906250003,0.0036050224562241434,0.459491,0.4397985,0.20335941898285845,0.003933925000000005,0.45093948906250003,0.002127999999999991,0.0196925,0.0,0.00014088828443082672,3331.7342587286275,0.0004574818099618125,4,SITTING
-0.20355172109375,0.041671057214254785,-0.1211232,-0.2665163,0.043169780169581486,0.07203622499999998,0.20355172109375,0.034094550000000015,0.1453931,0.0,0.019309601031719546,693.0692450836997,0.12622366434423218,-0.02655661895859375,0.022611586137159738,0.02111416,-0.08024847,0.0012165378381501354,0.025017405000000003,0.02729044637734375,0.00923421,0.10136263000000001,0.0,0.43461613330767146,15.743861913965178,1.0237964527229815,-0.30118194609375,0.07889123727437876,-0.1656214,-0.4476391,0.09693439197150086,0.12514787500000002,0.30118194609375,0.0641561,0.28201770000000004,0.0,0.044245466678179746,1537.1972929981946,0.20021939763928404,0.9574623164062501,0.004679266496267363,0.968194,0.9450406,0.916755982872965,0.0066093999999999875,0.9574623164062501,0.0032060999999999895,0.02315339999999999,0.0,5.304299403961016e-05,15019.950655291266,0.00018076089142837333,0.14459704687499997,0.01000714768831616,0.1581309,0.1116331,0.021008448969826718,0.015866850000000016,0.14459704687499997,0.007526149999999995,0.04649779999999999,0.0,0.004590199199467439,343.3820841398749,0.021337884036289795,0.31429129140625,0.00671482983178636,0.3334356,0.2984177,0.0988241047934782,0.0065560500000000355,0.31429129140625,0.0034080999999999695,0.03501789999999999,0.0,0.000873478168113374,1618.764878107608,0.002796808971931941,4,SITTING
-0.12547719218750003,0.04936905237061702,-0.04364947,-0.2139845,0.01818182909123154,0.08926812750000002,0.12547719218750003,0.0433633,0.17033503,0.0,0.09015085405755387,277.92820338074375,0.36985136239289973,-0.015005918880703125,0.0106105453764922,0.02111416,-0.03463405,0.00033776127464084246,0.015040453999999998,0.015876812084921872,0.00791809,0.05574821,0.0,0.5883853469817483,4.61175998247364,0.9962115074760446,-0.1650439071875,0.08100509024859077,-0.02695519,-0.3289714,0.033801315945898455,0.127554875,0.1650439071875,0.06116715,0.30201621,0.0,0.15260098735285882,500.05768341376705,0.5313060832080849,0.9546895507812501,0.0028409282961570238,0.9629479,0.9474999,0.9114402092444889,0.0035190999999999972,0.9546895507812501,0.0017548000000000008,0.015448000000000017,0.0,2.8141027582666705e-05,14932.97027608616,7.324070325490107e-05,0.1558858671875,0.005016263305833795,0.1687341,0.1418323,0.02432556648635234,0.005491000000000024,0.1558858671875,0.002657050000000008,0.026901800000000003,0.0,0.0011703667313941214,398.34399662989426,0.005538783783539256,0.3136787625,0.004594398647266037,0.3225754,0.3026267,0.09841547454246141,0.00647120000000001,0.3136787625,0.003234850000000039,0.019948699999999986,0.0,0.0004714753648355869,1612.266214648205,0.001401637434382341,4,SITTING
-0.0533116872890625,0.034355373913707486,-0.006675429,-0.1224224,0.004022427718357441,0.057849785,0.0533116872890625,0.029855979999999997,0.115746971,0.0,0.20299727615902505,56.236076942443766,0.7197879441253964,-0.009269405699453125,0.010634133622004516,0.0218543,-0.03331451,0.00019900667991170097,0.01215492375,0.011090029705234376,0.0066351503999999995,0.05516881,0.0,0.7473752487486295,2.3341389547983606,1.4932910374216144,-0.05615196717992187,0.0499425689059013,0.005725513,-0.1631935,0.005647303607095722,0.08971769,0.05648044006851562,0.027841652000000005,0.16891901299999998,0.0,0.3389430698197445,72.09591286755897,1.0241465278776114,0.95520513671875,0.0029622228058838844,0.9618085,0.9459184,0.9124256279778378,0.003858549999999905,0.95520513671875,0.0019546500000000577,0.015890099999999907,0.0,2.333544119740198e-05,14949.109623151637,7.813993598141556e-05,0.1572661015625,0.0037795082527977515,0.1687341,0.1479362,0.024746911383299534,0.004185149999999999,0.1572661015625,0.0021982000000000113,0.020797900000000008,0.0,0.0007662483203348822,405.33639506892774,0.0032935880066077977,0.31226260781250004,0.004545849402384302,0.3236515,0.3019302,0.09752860098465235,0.0064274000000000275,0.31226260781250004,0.003203750000000005,0.0217213,0.0,0.0005029040756010459,1597.7393135610112,0.0014066678198975642,4,SITTING
-0.0104680370771875,0.01643537118711886,0.01265449,-0.0509704,0.000379701226307749,0.02592601825,0.015319549743125,0.0135191635,0.06362489,0.0,0.7901848936059431,4.00854628211489,1.6765767650329049,-0.0009874752421875003,0.006965726522486654,0.0218543,-0.02235039,4.949645334000727e-05,0.01071847725,0.0058729744,0.004603262,0.044204690000000005,0.78125,3.6228539006996416,0.4134677698746507,2.7613802525214632,-0.00520330691359375,0.014024869540988805,0.01267073,-0.0365987,0.00022377136847880804,0.024334523999999996,0.01124980440359375,0.009116912,0.049269429999999996,0.390625,0.9646448469723431,2.0551012351992135,1.7401505201074332,0.9557314078125,0.0030953645612383333,0.9630642,0.9459184,0.9134321051610301,0.003966950000000025,0.9557314078125,0.001962699999999984,0.01714579999999999,0.0,2.5104021932300606e-05,14965.593122292219,8.571342151208028e-05,0.15579642890625,0.0031395232743242725,0.1664388,0.1465973,0.024282383866330234,0.00398657500000002,0.15579642890625,0.001899999999999999,0.019841499999999984,0.0,0.0007738536020456263,397.761837008015,0.0024437285106991315,0.31257656718750004,0.004412894637453639,0.3236515,0.2983559,0.09772358399380297,0.005391800000000002,0.31257656718750004,0.002834949999999975,0.025295599999999974,0.0,0.00048400133672594586,1600.9436727556529,0.0013210592276829114,4,SITTING
0.006806985868125,0.006643990619464691,0.01535615,-0.01793096,9.047766796038828e-05,0.00543432375,0.0087467809228125,0.0027692340000000006,0.03328711,0.0,0.7318644990918299,1.1208080911693115,1.3765919297839233,0.0007701287843749998,0.0060223310471835675,0.01537165,-0.0145592,3.686156958639403e-05,0.009084392,0.0051508514328125,0.0048150682,0.029930850000000002,0.390625,3.7122461548661496,0.30683091943244023,2.748844611915265,0.013040334258515624,0.011043384888651458,0.04239926,-0.004334266,0.0002920066673727116,0.013828747499999999,0.013530158952265624,0.0055643355,0.046733526,0.0,0.4073980646784863,3.7852671604561197,1.105650095278875,0.95468453671875,0.002940830239725869,0.9630642,0.9476106,0.9114312131323932,0.0039392000000000316,0.95468453671875,0.0019369999999999665,0.015453600000000067,0.0,2.2541641534507663e-05,14932.818157999789,7.733401688242585e-05,0.16009056328125,0.004866886028895797,0.170955,0.1465973,0.02565267503132617,0.008036124999999977,0.16009056328125,0.004029150000000009,0.024357699999999982,0.0,0.0009100331637844378,420.0994024898712,0.004788270275084409,0.3122593546875,0.0041190800251288545,0.3223294,0.2983559,0.09752287141010733,0.004261349999999997,0.3122593546875,0.0021868999999999916,0.02397349999999998,0.0,0.00043480408421756544,1597.6757329942461,0.001173023064428016,4,SITTING
0.0104993994453125,0.002625233440810826,0.01723944,0.003754326,0.00011712923933097988,0.0036641072499999996,0.0104993994453125,0.0017128324999999998,0.013485114000000001,0.0,0.11192836981377488,1.8625882419116488,0.22242502186468885,0.0004412253429687499,0.005361264952779313,0.0144262,-0.0145592,2.8937841697177662e-05,0.00838874675,0.00441228116328125,0.0038843315,0.0289854,0.78125,4.216029069676264,0.23868720091884105,2.6632152276578602,0.018855828164062498,0.0084834961654905,0.04239926,0.002208639,0.0004275119629425446,0.011814080000000001,0.018855828164062498,0.005929329999999998,0.040190621,0.0,0.1283671408585795,6.414783290586466,0.4348843168203866,0.9550955890624999,0.0027922459669098157,0.9603653,0.9476106,0.9122153808841835,0.004266824999999974,0.9550955890624999,0.002195349999999985,0.012754700000000008,0.0,1.6067202450973568e-05,14945.672930723087,6.900479994038503e-05,0.16055923593750002,0.00424904925058121,0.170955,0.1521729,0.025797322664367656,0.006818975000000005,0.16055923593750002,0.003376649999999995,0.018782099999999996,0.0,0.0008931864044669289,422.51545258830123,0.003814036978606359,0.31091025546875,0.0049936293235076125,0.3220539,0.2948953,0.09669012328946397,0.006082024999999991,0.31091025546875,0.003106850000000022,0.027158599999999977,0.0,0.0004719137434542144,1583.9667022963472,0.0016397052538155688,4,SITTING
0.0074051837425,0.0039900912216765646,0.01723944,-0.001639036,7.075757421748668e-05,0.005282461749999999,0.0074821559825000005,0.0030021425,0.018878476,0.0,0.334454309511002,1.0288705106903233,0.6760080463672234,0.0020460597281249998,0.0060428422142752135,0.01727508,-0.01278186,4.0702302437681525e-05,0.008176524499999999,0.0052189528484375,0.0040820815,0.030056940000000004,0.390625,2.5686146168685178,0.36773459196608566,2.4272925103238983,0.009096424619140625,0.009641415176669216,0.02950626,-0.01015704,0.0001757018274606151,0.015231581750000002,0.010817171722265626,0.00834883655,0.0396633,0.0,0.584640500084395,2.1172623231586982,1.251428551864324,0.95529626171875,0.0026812086367182784,0.9616283,0.9480277,0.912598136533572,0.004482325000000009,0.95529626171875,0.0022176500000000154,0.013600599999999963,0.0,1.8877179170778453e-05,14951.948980755933,6.532965017350021e-05,0.15900642421875,0.0034493089437357344,0.1661824,0.1521729,0.025294940675022422,0.004479275000000005,0.15900642421875,0.002244999999999997,0.014009500000000008,0.0,0.0007757901836543628,414.33484614429847,0.0027930259323327125,0.30991242109375,0.004668477206499132,0.3220539,0.2948953,0.09606750342761741,0.00600719999999999,0.30991242109375,0.0030977000000000365,0.027158599999999977,0.0,0.0003722479178807569,1573.7914490069104,0.001449743235573833,4,SITTING
0.0031257466708593754,0.002962283650881006,0.009299922,-0.004013136,1.8545416678665363e-05,0.00472007815,0.003537284976015625,0.002350449,0.013313058,0.0,1.4367625099204007,0.23197275643575477,1.5144918380362413,0.0019483860953125,0.006424399554629953,0.01727508,-0.01278186,4.506911801393662e-05,0.0093343595,0.005399430971875,0.004802300000000001,0.030056940000000004,0.390625,3.127118060541288,0.40034641720941894,2.8729404591041625,0.0027879302339843754,0.007606350797629274,0.02222883,-0.01624187,6.562912744615966e-05,0.012066432500000002,0.006505627430859375,0.0060180975,0.0384707,0.78125,1.3895675192473624,0.6013097656264108,1.87913553227859,0.954340046875,0.002670026177040968,0.9616283,0.9465714,0.9107720541091633,0.003335575000000035,0.954340046875,0.0016626499999999877,0.01505690000000004,0.0,2.4196639348414858e-05,14922.030940045217,6.478346160555595e-05,0.16265946640625,0.0036797072017578144,0.1715425,0.1532105,0.02647164225665664,0.004758249999999964,0.16265946640625,0.002276849999999997,0.018331999999999987,0.0,0.0007473983092024295,433.60048995225577,0.003002519711520784,0.31006222578125,0.003804459978992711,0.3169765,0.3013442,0.09615305777215462,0.005777100000000035,0.31006222578125,0.0028898000000000534,0.015632299999999988,0.0,0.00028017203364159014,1575.2531298382476,0.0009976521851112184,4,SITTING
0.0013780995674218751,0.0027436135490009486,0.009558672,-0.004113235,9.426573723989938e-06,0.0036690717999999997,0.002441298526328125,0.001849429,0.013671907,0.0,3.5562624685126605,0.09279399548072584,2.7618735909094783,-8.427481093750003e-05,0.005774170411465373,0.01659799,-0.01417126,3.3348146184400746e-05,0.007004505750000001,0.0045708360078125,0.003448349,0.030769249999999998,2.34375,3.5902510962455687,0.2732566870473514,2.85277341833698,0.002573990215625,0.007756330136714309,0.02222883,-0.01624187,6.678608281983586e-05,0.011956459749999999,0.0065533716640625,0.006023005,0.0384707,0.390625,1.294665443217692,0.6014186964083011,1.8156529307606786,0.9545649375,0.002495817544788681,0.9594862,0.9465714,0.9112004490095957,0.003087299999999904,0.9545649375,0.001538600000000001,0.012914800000000004,0.0,2.1023119678924372e-05,14929.057128586202,5.738635913725682e-05,0.16323698359375,0.003356253269499741,0.1715425,0.1546606,0.026657577248795236,0.004732850000000011,0.16323698359375,0.0023360999999999937,0.016881899999999977,0.0,0.0007142250446174247,436.66546749254115,0.0025704158713449315,0.30901531875,0.00382148963483871,0.3172375,0.300365,0.09550507100519326,0.005732149999999991,0.30901531875,0.0026750000000000107,0.016872500000000012,0.0,0.00031269203086670334,1564.635456046499,0.0010291424775258305,4,SITTING
-0.00035746513070312503,0.0031208660332188035,0.009558672,-0.008030536,9.867586116967473e-06,0.00399892275,0.002424215670859375,0.0019550684999999996,0.017589208000000002,0.390625,4.115083822154589,0.08189446749031669,2.9588139748439746,0.00013826099531250014,0.005883382548121016,0.01145848,-0.01442998,3.463330631035973e-05,0.0091099325,0.0050510459828125,0.004635427,0.025888460000000002,0.390625,2.997021596691054,0.2838755832058781,2.348423318008248,-0.002254794621875,0.005978598944452239,0.0105475,-0.01704355,4.0827744125441855e-05,0.008068709,0.005230866885937499,0.0037695569999999998,0.02759105,0.390625,2.1437639644515283,0.37612953446598807,2.410039829758908,0.9543181421875001,0.002475715774326987,0.9625569,0.9462223,0.9107292456767966,0.0030556999999999945,0.9543181421875001,0.0015393500000000504,0.016334600000000088,0.0,2.1097015113820346e-05,14921.33775353907,5.698539784367243e-05,0.163290328125,0.0034622791356890524,0.1716219,0.1546606,0.026675718635983593,0.0050606750000000145,0.163290328125,0.002487749999999983,0.016961299999999985,0.0,0.0007884480572313209,436.95677564030007,0.0026824743707111634,0.3099713609375,0.00441816378456301,0.3199662,0.300365,0.09610176477267313,0.006325175000000016,0.3099713609375,0.002947850000000002,0.019601199999999985,0.0,0.0003939794797694032,1574.3714196549354,0.0013166339967297467,4,SITTING
-0.0010564633002343748,0.0029648114707162628,0.005340396,-0.008030536,9.906221761632837e-06,0.003406304175,0.002453006682578125,0.0017694214500000001,0.013370931999999999,0.0,3.539261195675166,0.09030906540348484,2.953491479060691,-0.00055644872109375,0.005252161915480723,0.00969577,-0.01442998,2.789483996563301e-05,0.008505404250000001,0.00442769438984375,0.00371334,0.02412575,0.78125,3.779421648295187,0.23106909230446515,2.8069026677093425,-0.0006369508757812499,0.007471080283270216,0.01912886,-0.01704355,5.622274701722747e-05,0.0107617415,0.006211179096093749,0.004703654,0.03617241,0.390625,2.162854926132966,0.4639811252028311,1.986510530933182,0.95322853984375,0.0026310475619079673,0.9625569,0.9462223,0.9086515715839207,0.003307825000000042,0.95322853984375,0.001587000000000005,0.016334600000000088,0.0,2.151737343876967e-05,14887.290640512345,6.352761212375726e-05,0.16569216874999998,0.0031149128256449136,0.1736632,0.1563018,0.027463597466989842,0.003643675000000013,0.16569216874999998,0.001923649999999999,0.0173614,0.0,0.0005166693689814388,449.8840965514579,0.0021081022459168747,0.31149775859375,0.0045483409291796895,0.3213905,0.3007139,0.09705154101413821,0.007248124999999994,0.31149775859375,0.0037623499999999976,0.020676600000000045,0.0,0.0004632399388113594,1589.9229785421971,0.0013900718923666078,4,SITTING
-0.000341585719375,0.0031918568936457584,0.007084152,-0.00622553,1.0304631233194883e-05,0.00421691125,0.0026222729364062504,0.0022067034999999997,0.013309682,0.390625,3.652041546291802,0.08537965136226779,2.9166011125708913,-0.0008880294301562501,0.0057770472587328646,0.0199989,-0.01281144,3.416287129845654e-05,0.007195096,0.004709630622968751,0.003655188,0.03281034,0.390625,3.510977248407873,0.28636749506603015,2.776810735375384,0.0027149862359375,0.007540733574692343,0.01912886,-0.01654883,6.423381310582244e-05,0.01083459975,0.0066454415828125,0.0054029975,0.03567769,0.390625,1.5313134168678395,0.5865927276447362,2.1035827359402535,0.9536338359375001,0.002552531514427586,0.9608064,0.9476951,0.9094240084620028,0.003624374999999902,0.9536338359375001,0.0017505000000000437,0.013111299999999937,0.0,1.8354139600646002e-05,14899.949583458818,5.924071791310641e-05,0.16368083671875,0.004097829011803672,0.1736632,0.1550881,0.02680820851156008,0.006066925000000001,0.16368083671875,0.003088599999999997,0.018575099999999983,0.0,0.0006347773012056548,439.0881266291219,0.0033796493914706456,0.30961463984374993,0.004239916236962631,0.3213905,0.3007139,0.09587920209527148,0.005829974999999987,0.30961463984374993,0.003064199999999989,0.020676600000000045,0.0,0.00034616498570734077,1570.7375807652634,0.001228067943056555,4,SITTING
-0.0005536105792734375,0.0033392392753475316,0.007084152,-0.0124939,1.1457003611506978e-05,0.0042960035,0.0026166443140078124,0.002172353,0.019578052,1.171875,4.795008016997204,0.09641626049062259,3.242783142967011,0.0008105339128125,0.007232636020555248,0.0199989,-0.0278183,5.296798902965239e-05,0.0107002475,0.0060055207409375,0.005641131000000001,0.047817200000000004,0.390625,2.889956258903898,0.43938439889132613,2.2241274761500742,-0.00242016331015625,0.007669216278116691,0.01479715,-0.02014623,6.467406876835647e-05,0.009577942749999999,0.00667640634296875,0.0044387772499999995,0.03494338,0.390625,1.5398885303291099,0.5777933725697505,2.163858547582263,0.95420226171875,0.0025621941204061636,0.9608064,0.9444618,0.9105085211078885,0.0036042499999998645,0.95420226171875,0.0017455999999999583,0.01634459999999993,0.0,2.4268209649262772e-05,14917.71784907778,6.129428101610851e-05,0.16252903828124998,0.0034077687097397655,0.1724663,0.1550881,0.02642730117220711,0.004797675000000001,0.16252903828124998,0.002414650000000018,0.017378199999999983,0.0,0.0007413193712627245,432.88977160666417,0.0026049891638741576,0.31060469765625,0.004042974216686447,0.3209431,0.3009798,0.09649162384664726,0.005540349999999972,0.31060469765625,0.002787099999999987,0.01996329999999996,0.0,0.0003354698673497607,1580.7848626144978,0.0010894736687010033,4,SITTING
0.0610835223671875,0.04060437384733852,0.1866745,-0.05807814,0.005379911880317123,0.03101009250000001,0.0656385974765625,0.014538554999999998,0.24475264,0.0,0.4006995795450415,74.6391225847409,0.8176938989572117,-0.0260312073203125,0.05263035706856149,0.1404171,-0.2617657,0.003447578239717371,0.0266798855,0.0336448322046875,0.0115106942,0.40218279999999995,0.0,2.5284282119432615,33.79376349781505,2.5873534404899954,0.202239813203125,0.09291144381657941,0.4137371,0.06730612,0.04953347843651629,0.172336975,0.202239813203125,0.0870993,0.34643098000000005,0.0,0.11085732854011222,740.8493329509763,0.45661784010721146,0.18128593203124999,0.015322322027773798,0.2107747,0.121506,0.0330993627047618,0.01003889999999999,0.18128593203124999,0.004493299999999992,0.0892687,0.0,0.013621614154625001,540.3767726933346,0.0340984279749858,0.7928201828125,0.0187923096335314,0.8956578,0.7400756,0.6289169931762084,0.008600324999999964,0.7928201828125,0.0031316000000000677,0.1555822,0.0,0.0011786483115121273,10301.283004071756,0.0034225279174129163,0.57080637421875,0.010948664780709608,0.5891572,0.5328179,0.325939790109236,0.006893724999999962,0.57080637421875,0.003885750000000021,0.05633930000000009,0.0,0.00047913127910986065,5339.215526073167,0.0022343968238789642,6,LAYING
0.0380897633203125,0.018023757959942415,0.07883606,0.007927525,0.001775685920796011,0.031660465,0.0380897633203125,0.01497136,0.070908535,0.0,0.11650197688166358,26.431849927234097,0.48530890097374774,-0.002010827359609375,0.007554976512440436,0.01277749,-0.02369228,6.112109677368027e-05,0.0103722895,0.005924053878359375,0.004130729200000001,0.03646977,0.390625,1.952606230287817,0.5338748008990948,2.2338435827617302,0.07578559215625,0.05414412868738244,0.1884581,-0.001689338,0.008675042649789291,0.085469855,0.075836252703125,0.0428546,0.190147438,0.0,0.26709941130172293,118.12091479452003,0.8402315450178405,0.18725597187499998,0.002869883118671209,0.1938947,0.1787438,0.03507303523196563,0.003244175000000016,0.18725597187499998,0.001647700000000002,0.015150899999999995,0.0,0.0006719326246571542,574.5691415528033,0.0015486359557027201,0.7891893249999999,0.002798037862223727,0.7985047,0.781358,0.6228276197098341,0.0037749500000000547,0.7891893249999999,0.001722599999999963,0.01714669999999996,0.0,3.4756286929934115e-05,10204.343586030654,0.00010101761076694806,0.5732804453125,0.00404114901739088,0.5861577,0.5624127,0.32866679986307906,0.004804849999999972,0.5732804453125,0.0023315500000000156,0.023745000000000016,0.0,0.0001363018162630758,5384.74306655386,0.00036629991301053035,6,LAYING
0.01469722799734375,0.01025309905027038,0.03736635,-0.00313065,0.00032113455094056036,0.014609677249999998,0.01477088819421875,0.007370898,0.040497,0.0,0.32067754162729767,4.400416800438765,0.8683145450805324,-0.0004656852644531251,0.004936345822868777,0.01277749,-0.01357699,2.4584372848482808e-05,0.00661356225,0.003891640756328125,0.0033229310000000003,0.02635448,0.390625,2.784674619391018,0.20319158116497943,2.2103595547656893,0.006290100703828126,0.027733752313600812,0.06944356,-0.03255861,0.0008087263842564576,0.04547857499999999,0.02374116343820313,0.02063856,0.10200217,0.390625,1.2704025412362194,6.950454988500768,1.7733076641141803,0.18785935625,0.002422874688249671,0.1939644,0.1813707,0.03529700805241938,0.0030002249999999953,0.18785935625,0.0013934499999999905,0.012593700000000013,0.0,0.00045030205084644394,578.2580963053513,0.0011139713836675698,0.7884116765625,0.002402087250688331,0.7963858,0.7810431,0.621598741763252,0.002883324999999992,0.7884116765625,0.0014493000000000422,0.015342700000000042,0.0,2.843426589069618e-05,10184.22651919134,7.612226393267805e-05,0.57445795546875,0.0038063768824461016,0.5861577,0.5624127,0.33001643110630763,0.004324474999999994,0.57445795546875,0.0021773500000000223,0.023745000000000016,0.0,0.00012276914480967733,5406.870518978584,0.0003241197221954873,6,LAYING
0.002800184973453125,0.005005294108298493,0.0148696,-0.006352334,3.289400499612028e-05,0.00800737125,0.004245290803140625,0.002968809,0.021221934,0.0,1.1309612528369635,0.33373217835964747,1.817637656560253,-0.0008102251571875,0.00576158791069209,0.01326154,-0.01357699,3.385236005797275e-05,0.007708425,0.004752027075625,0.0037269390000000003,0.02683853,0.390625,1.9339969553899308,0.2826962976164912,1.705405125049116,-0.019162037233671877,0.007477927268800283,1.542409e-05,-0.03255861,0.0004231030671820941,0.0089929075,0.019162278235078125,0.004421284999999999,0.03257403409,0.0,0.1580325602399362,6.474058228798253,0.39495001176653827,0.1879163921875,0.0025828942292455996,0.1939644,0.1813707,0.03531924179536578,0.003637299999999982,0.1879163921875,0.0017950500000000064,0.012593700000000013,0.0,0.0004943105633331842,578.6158071040899,0.0012237911365286973,0.7881079390625001,0.002359016907634487,0.7932535,0.7810431,0.6211196885741117,0.0030495499999999565,0.7881079390625001,0.0015963999999999978,0.012210399999999955,0.0,2.209924980675131e-05,10176.379390357628,7.39056989742722e-05,0.5739984375,0.0032738238483938776,0.5827673,0.5639359,0.3294849241750317,0.0042949249999999495,0.5739984375,0.0021556000000000353,0.018831399999999943,0.0,9.086354838394104e-05,5398.1931978254215,0.0002492601727299868,6,LAYING
-0.001934301066078125,0.0024335318330655953,0.003488633,-0.006674747,9.663597796774566e-06,0.0036204627315,0.0025793329011093748,0.0018493018499999999,0.01016338,0.0,2.1654100129393665,0.10981886705662641,2.101834043341943,0.00282376059765625,0.0054434229980140384,0.01326154,-0.01196211,3.760447784818413e-05,0.0075170486,0.0051726318601562505,0.00372627615,0.02522365,0.0,1.6245071789160237,0.3733764209859384,2.0039459269608972,-0.017874464890625,0.004962523187962636,-0.007097394,-0.03113814,0.00034412313151725265,0.006509267500000002,0.017874464890625,0.0032489550000000004,0.024040746,0.0,0.1148375490381835,5.43642777140525,0.24525830907171117,0.187865375,0.002446083354632975,0.1935387,0.1803184,0.035299382447668434,0.0032604999999999995,0.187865375,0.0016866000000000103,0.013220300000000018,0.0,0.00043224079547768743,578.2960667502775,0.001129148717611824,0.7882879625,0.0021397724861536103,0.7932501,0.7826088,0.6214024904486939,0.002587024999999854,0.7882879625,0.001303799999999966,0.010641299999999965,0.0,1.9756251769619518e-05,10181.020895837633,6.174247414716923e-05,0.57381433359375,0.0036607208416742547,0.5851367,0.5639359,0.32927629031472005,0.004545175000000068,0.57381433359375,0.0022880999999999596,0.02120079999999991,0.0,0.00010033789085506193,5394.752967241213,0.00030298233111582446,6,LAYING
-0.002842671128125,0.002459349807127204,0.003354906,-0.00976919,1.4129180616492075e-05,0.003353744,0.0032103866999999998,0.0017768435000000003,0.013124096,0.0,1.3577855259856013,0.18194494723907018,1.4538576090775832,0.00038436764296874995,0.005901648923238049,0.01325396,-0.01090945,3.4977198498118185e-05,0.009550879,0.00502151688671875,0.004812240000000001,0.02416341,0.390625,2.250598782761936,0.2877458437254165,1.8960103292810448,-0.01360615003046875,0.004857863392827404,0.005884907,-0.02301264,0.00020872615539499736,0.0056012599999999985,0.013822100124218748,0.002669340000000001,0.028897547000000003,0.0,0.2466339589786136,3.226525619101196,0.4061110805380458,0.18821634921875002,0.0030432210586091002,0.1960576,0.1803184,0.035434655307646015,0.0035626749999999874,0.18821634921875002,0.0018502999999999992,0.01573920000000001,0.0,0.0006749839043116918,580.4855249109982,0.0016441175195711431,0.788370028125,0.0019828824903698242,0.7928625,0.7810343,0.621531233068784,0.0023956000000000532,0.788370028125,0.0013014999999999555,0.011828200000000066,0.0,2.095482151223977e-05,10183.135513105739,5.3977816733633735e-05,0.57372632578125,0.004290264044016653,0.5893528,0.5648088,0.3291803032600204,0.0054405499999999885,0.57372632578125,0.002616699999999972,0.02454400000000001,0.0,0.00013849351592437964,5393.139306907272,0.0004076213929146974,6,LAYING
-0.0021879536083906246,0.0025839026946636403,0.006867838,-0.00976919,1.146369412795958e-05,0.003037751275,0.002762715195421875,0.001536341,0.016637028,0.0,2.092318112635388,0.1331270602935191,1.926937930778148,0.00131674184140625,0.006231602262403478,0.01812942,-0.01090945,4.056667583370206e-05,0.00895071975,0.00534709861484375,0.005014374,0.02903887,0.390625,2.351022233727296,0.3465385386469378,2.186626455390791,-0.0049507337321093746,0.008860973823741701,0.007038395,-0.02025818,0.00010302662159128128,0.016485956750000003,0.008290021966328125,0.008053922500000001,0.027296575,0.390625,0.825699294255505,1.0447991861960593,1.5016370762536004,0.18825134453125,0.003186534352474698,0.1960576,0.1795794,0.0354487227190029,0.003868925000000023,0.18825134453125,0.0019596000000000197,0.0164782,0.0,0.0007315548996837632,580.708691515101,0.0017796680570363486,0.78808543203125,0.0025502773369997706,0.7933739,0.7804667,0.6210851520943776,0.0036239750000000015,0.78808543203125,0.001805649999999992,0.012907200000000008,0.0,2.7998688173568968e-05,10175.805853341282,8.550455776844454e-05,0.5737071078125,0.0038619250566955185,0.5893528,0.5648088,0.329154760019727,0.004731299999999994,0.5737071078125,0.0024573999999999985,0.02454400000000001,0.0,0.0001232651920768169,5392.749412705082,0.0003372845535958544,6,LAYING
-0.001216268134015625,0.0024099580517787287,0.006867838,-0.006931465,7.287205985154977e-06,0.0029073100750000003,0.002193748137296875,0.00147965355,0.013799303,0.0,3.148624839690242,0.0718153343996311,2.763484570211258,0.0007381986734375001,0.006585441494124336,0.01812942,-0.01176205,4.3912976953999465e-05,0.009912899749999999,0.005719194696875,0.0048994235,0.02989147,0.390625,1.8541354934822367,0.3642079045231079,1.9058727724849356,-0.0005624465305468751,0.004690302188991993,0.007038395,-0.0164,2.2315280723787307e-05,0.0074943805,0.004057847249140625,0.0039868835,0.023438395,0.390625,2.8454123907965077,0.18541660110305952,2.245435228469871,0.18875645859374998,0.0025298457662513534,0.1956624,0.1795794,0.03563540078045507,0.0025874249999999765,0.18875645859374998,0.0012682499999999847,0.016082999999999986,0.0,0.0004551380483421813,583.7979781038274,0.0011981467591235773,0.787172728125,0.0026457751278553005,0.7933739,0.7771979,0.6196479040297824,0.0028719999999998747,0.787172728125,0.001493000000000022,0.016175999999999968,0.0,2.832624422625451e-05,10152.253914713656,9.138253921539709e-05,0.57457033984375,0.004325849065092232,0.593163,0.565289,0.33014978839829634,0.005089275000000004,0.57457033984375,0.002616200000000013,0.027873999999999954,0.0,0.00012408041117933135,5409.020837656931,0.0004108611529664961,6,LAYING
-6.42058228125e-05,0.0023472234139428195,0.006451388,-0.004951969,5.513580142644415e-06,0.003196497,0.00185427851328125,0.0014635820000000002,0.011403357,0.390625,3.7299842152700795,0.04520362611814446,2.7461080076022215,-0.0006471765640624999,0.005232617540909555,0.008965364,-0.01176205,2.779912383450611e-05,0.008661254,0.00456839154015625,0.004143563115,0.020727414,0.390625,1.8604420499101382,0.2311649557970498,1.9856890427932976,6.153121554687495e-05,0.005186701506614046,0.01352649,-0.0164,2.690565860919909e-05,0.00754595325,0.004280674033046875,0.0038818605,0.02992649,0.390625,2.6435989566502287,0.22044396723901452,1.8729865894896016,0.18976487109375,0.0025797385180040635,0.1977101,0.1799213,0.03601736135204883,0.002745225000000018,0.18976487109375,0.0013541500000000123,0.017788799999999994,0.0,0.00047434364050796883,590.0539304746242,0.00123495544664819,0.78622702109375,0.002926621408901297,0.7934405,0.7771979,0.6181614938108231,0.00357239999999992,0.78622702109375,0.0016089499999999424,0.016242599999999996,0.0,3.804485707530148e-05,10127.88774931975,0.00011109894668069578,0.5757263906250001,0.0045927035753811005,0.593163,0.565289,0.3314819697882214,0.005582299999999929,0.5757263906250001,0.0028236999999999846,0.027873999999999954,0.0,0.00013019599946338933,5430.827799790651,0.00045445033342978754,6,LAYING
0.0002675760253125001,0.0020391037907632682,0.006576776,-0.004485599,4.229541198827167e-06,0.002600476,0.0015717961565625,0.001224003085,0.011062375,2.734375,4.520950554659586,0.03523625852484402,3.014224262921407,-0.00085653365703125,0.005095241900028043,0.008965364,-0.01038675,2.6695139925428704e-05,0.008517584500000001,0.00448122083625,0.00413079455,0.019352114,0.390625,2.012578474859925,0.22470027847717128,1.7747452317911472,0.0008234217108593749,0.004909610750639389,0.01352649,-0.0116685,2.478230103670845e-05,0.007160442750000001,0.0040945473861718745,0.0032569755000000002,0.02519499,0.390625,3.017917454169892,0.20858597501565232,2.4285219299840155,0.18959407421875002,0.003079230359253907,0.2015769,0.1799213,0.03595539463847024,0.0033351000000000075,0.18959407421875002,0.0017286999999999997,0.021655599999999997,0.0,0.0006863103438131805,589.0155184830093,0.001724481185433337,0.78634419765625,0.003029410368796645,0.7934405,0.7777475,0.6183463745148341,0.004029074999999938,0.78634419765625,0.0019884500000000305,0.015692999999999957,0.0,4.2418462138112385e-05,10130.911820696534,0.00011792461635601973,0.5764482390625001,0.003924927539284051,0.5882764,0.5653633,0.3323079773744458,0.004881699999999989,0.5764482390625001,0.00256354999999997,0.02291310000000002,0.0,0.00012144568408140578,5444.407712400004,0.0003439102206924713,6,LAYING
0.00012063056312500002,0.0026879206962005875,0.007727729,-0.009420592,7.2394694018233035e-06,0.00317326525,0.0020848855835937504,0.00155951235,0.017148321,4.296875,5.517105588139121,0.05942740052677853,3.181061734981432,-0.00017068815546875,0.005674187966747957,0.01182514,-0.01038675,3.222554352840463e-05,0.0097967045,0.00501671817734375,0.004701768,0.022211889999999998,0.390625,2.198247614640772,0.2642316806049234,2.099990778952034,0.000549703445,0.004540008603303958,0.01030801,-0.0116685,2.0913851995518825e-05,0.0059529095,0.0037717211246874995,0.002916264,0.021976509999999998,0.390625,2.7885765719716553,0.1738023982970713,2.4196432971082853,0.18932324296875,0.002833772124877334,0.2015769,0.1813777,0.03585132059266008,0.0036677499999999974,0.18932324296875,0.001930299999999996,0.0201992,0.0,0.0006299263492388729,587.3222534997752,0.001439113280160737,0.7867558640625,0.0023069382566420125,0.7919008,0.7803047,0.6189901116008509,0.003082224999999994,0.7867558640625,0.0013966499999999993,0.011596099999999998,0.0,2.3788815541377784e-05,10141.490392200096,7.081280423042028e-05,0.57621693671875,0.003934111659750665,0.5882764,0.5653633,0.3320414353960913,0.005112974999999964,0.57621693671875,0.0025212000000000012,0.02291310000000002,0.0,0.00012329495717088127,5440.040094184516,0.0003454686776293839,6,LAYING
-0.0005309450265468751,0.003048857320274517,0.007727729,-0.009420592,9.577433580606368e-06,0.00446332325,0.002541681793765625,0.0022634405,0.017148321,0.390625,4.630951668276595,0.08076862281348518,3.1546257609961916,-0.0007146639103906251,0.005881652237937123,0.01182514,-0.01400701,3.510457755284559e-05,0.00919062525,0.004952405791640625,0.0045491795,0.025832149999999998,0.390625,2.2252005348176818,0.2917771709533661,2.2459253426918253,-0.0004825680190625,0.0048947478390276,0.01030801,-0.01329425,2.419142830068726e-05,0.007246022249999999,0.004031544823125,0.0033866555000000003,0.02360226,0.390625,2.5699037695248386,0.20009752139519446,2.105376986080557,0.189351715625,0.0026359250196929646,0.1967934,0.1833779,0.03586102031084031,0.003860900000000028,0.189351715625,0.0019351499999999966,0.013415499999999997,0.0,0.0005653645066607684,587.4900406457799,0.0012814369296724028,0.786427321875,0.002324330434297742,0.7915766,0.7808584,0.6184733351034527,0.002600099999999994,0.786427321875,0.0013259000000000465,0.010718200000000011,0.0,2.1241436264974377e-05,10133.022870996823,7.21418101953031e-05,0.5772977359374999,0.0038593428950432765,0.5862649,0.5682896,0.333287570446145,0.005489199999999972,0.5772977359374999,0.002852599999999983,0.017975300000000027,0.0,0.00012194702694292316,5460.461549451595,0.0003319738616477766,6,LAYING
-0.00028201489217187503,0.0025197154536282487,0.006024775,-0.005970226,6.428498366659725e-06,0.00311253625,0.0019935027297031246,0.0015288647,0.011995001,3.90625,3.9536174295939515,0.0533145201127665,2.6239853947408673,-0.0006363455299218749,0.006335554709706932,0.01469792,-0.01400701,4.054418911314125e-05,0.00873384,0.005161441892421874,0.0044672459,0.02870493,0.390625,2.1770075943732357,0.3354572890115136,2.0366096401525406,-7.991967429687514e-05,0.005390448093481006,0.009544378,-0.01329425,2.906331780285272e-05,0.008502316000000001,0.0045484040711718755,0.0042440675,0.022838628,0.390625,2.4035059494296362,0.23814031731130542,1.8564471843068147,0.18969334375,0.0029327474345672757,0.1972449,0.1830851,0.035992165670570626,0.004069650000000008,0.18969334375,0.002092499999999997,0.0141598,0.0,0.0007144750353335941,589.625183720222,0.00157534443103182,0.786287065625,0.0023643048915867183,0.7915022,0.7808584,0.6182529395067935,0.003061199999999986,0.786287065625,0.001526999999999945,0.010643800000000092,0.0,2.223190400232404e-05,10129.410370319942,7.391479586992035e-05,0.57719100234375,0.003674464513101382,0.5862649,0.5699329,0.33316295487604086,0.004607099999999975,0.57719100234375,0.002308549999999965,0.016332000000000013,0.0,0.00011605072754003167,5458.431248285015,0.00030338594243950137,6,LAYING
0.2369262875,0.09956467823330895,0.5832548,0.1048331,0.066047190860235,0.0822669,0.2369262875,0.03675015000000001,0.47842169999999995,0.0,0.10941761787966611,1000.9105328778248,0.4275913426581446,0.05193727443828125,0.06606230752610659,0.2258509,-0.2151532,0.007061708951751223,0.06296699,0.06679257087421875,0.02322009,0.4410041,0.0,1.3849401985267549,79.94788573211805,1.8255681762708638,0.28560065859375006,0.06378965448377058,0.4800637,0.1679185,0.08563685620834258,0.08088034999999999,0.28560065859375006,0.03609139999999997,0.3121452,0.0,0.039559360029011725,1369.7401830591646,0.16580933143729443,0.314069896875,0.022171023081994527,0.3849741,0.2290288,0.09913145438757547,0.013018924999999959,0.314069896875,0.006254599999999971,0.15594529999999998,0.0,0.00951571015678526,1620.1433626055637,0.02487568951325439,0.78085108203125,0.023399523505476538,0.8460121,0.6785252,0.6102759500096573,0.01953875000000005,0.78085108203125,0.0063152499999999945,0.1674869,0.0,0.0017522537381505384,9994.276479835818,0.005188902810898546,0.51710736328125,0.02680627511136872,0.5863513,0.4305626,0.2681186015450331,0.028428275000000003,0.51710736328125,0.009127749999999935,0.1557887,0.0,0.002982235159516797,4386.968625392218,0.013314709339802302,6,LAYING
0.150861648203125,0.0491213019930813,0.2451001,0.05358959,0.02517213920805894,0.090096025,0.150861648203125,0.046328249999999994,0.19151051,0.0,0.051405074680747315,392.6552154488602,0.2707453199033987,0.025084133765859374,0.017960509146145043,0.09773735,-0.01464139,0.0009517936555722862,0.019809495000000003,0.025871129181015622,0.009705120000000001,0.11237874,0.0,0.5622910247565758,12.951677403250448,1.0444903721936833,0.18879537125,0.06901871448504288,0.3235876,0.07833281,0.04040727515459319,0.10383039999999999,0.18879537125,0.0515371,0.24525478999999997,0.0,0.07643691071588066,623.0152560618191,0.33715430963525295,0.31486435312499994,0.004916936191114366,0.3261632,0.296697,0.09916373713033219,0.0055197750000000045,0.31486435312499994,0.002634300000000006,0.029466199999999998,0.0,0.0006057810968999259,1624.5006389772157,0.0016054853797539594,0.7756247859375001,0.005137897082734429,0.7956504,0.7647619,0.6016202065470254,0.005683600000000011,0.7756247859375001,0.0025489499999999943,0.030888499999999985,0.0,8.540797407633425e-05,9856.729249024223,0.00032340275222916587,0.52679490703125,0.006027512063164303,0.5543377,0.5082819,0.2775492049757349,0.005979024999999916,0.52679490703125,0.0030009500000000022,0.04605580000000009,0.0,0.0003663276710473695,4547.068713117272,0.0009189776187074717,6,LAYING
-0.032698813125000004,0.5023259170908451,0.4565978,-2.260283,0.2534005393609422,0.09690877249999999,0.29319011656250005,0.04956853,2.7168807999999998,0.390625,1.6831805008933234,2084.6249763229284,2.298654261510845,0.07333687483617188,0.16357636384129676,0.6367203,-0.1522263,0.03213552401827664,0.0775845801675,0.10251685490757813,0.0223936155,0.7889466,0.0,1.3897585689877667,307.3161812256224,2.149277245922649,0.019882428601562495,0.2118997268230521,0.1812374,-0.6895735,0.04529680519478034,0.1778287925,0.1608432251328125,0.054211949999999995,0.8708108999999999,0.390625,1.2320869687215699,374.30983680896037,1.9042009790742185,0.2147198672421875,0.13299215649610605,0.3326648,-0.08615691,0.06379153507798739,0.25765088999999997,0.22056229263281252,0.011726899999999957,0.41882171,0.0,0.1533659126774942,900.2788785269872,0.6232731083918291,0.7190318890624999,0.1386305871587143,0.986462,0.2995589,0.5362252971847572,0.167463975,0.7190318890624999,0.006792049999999994,0.6869030999999999,0.0,0.029598473681760638,8628.079103082626,0.1295980538624311,0.6121691015625,0.13500189999590226,0.9512482,0.3761371,0.39297652191034205,0.2213194999999999,0.6121691015625,0.013795399999999958,0.5751111,0.0,0.02642051096379672,6289.232582033177,0.14975775600882515,6,LAYING
-0.008546080046875001,0.5318469459243491,0.5884191,-2.260283,0.2829342093732251,0.442576825,0.35115139698437503,0.18599800000000002,2.8487020999999997,0.390625,1.6364377189917956,2318.3957437473678,2.234424614430725,0.017939613664062506,0.19659949543725577,0.6367203,-0.2658802,0.03897319134459937,0.17816047499999998,0.1429729913671875,0.07854621,0.9026005,0.390625,1.5546408070881494,321.90728535882425,1.8578434619755253,-0.0121801157265625,0.1970582255009571,0.1812374,-0.6895735,0.03898029945669853,0.11527003499999999,0.1288025869453125,0.044871980000000006,0.8708108999999999,0.390625,1.4275056026154131,320.5419397755654,2.091212908883592,0.0964868434140625,0.08891838743052712,0.3326648,-0.08615691,0.01721619057525514,0.050890794999999996,0.10232926880468748,0.02661560999999999,0.41882171,0.0,0.46058481750231073,217.3062555606798,1.2055507686529783,0.6779535171875,0.12942442594507864,0.986462,0.2995589,0.476371653498115,0.12807259999999998,0.6779535171875,0.07089830000000008,0.6869030999999999,0.0,0.032504241405488306,7667.652239845973,0.1316240807894842,0.70537521953125,0.10771114412992516,0.9512482,0.3761371,0.5091558908985366,0.1479315,0.70537521953125,0.07024934999999999,0.5751111,0.0,0.01477468784101934,8246.971904435068,0.08379014972154314,6,LAYING
0.11325044215859376,0.16825601620122993,0.5884191,-0.3326153,0.04113574963702554,0.1646846404,0.15576920241328124,0.104030355,0.9210343999999999,0.0,1.03956040482234,442.07611195770556,1.8532243366228254,-0.07625541556328125,0.05927507671009546,0.01924085,-0.2658802,0.009328423121716417,0.06530019249999999,0.07709164590390624,0.03770763,0.28512105,0.0,0.5403917070336045,124.05710787100894,1.0611219133135545,0.05735823911484375,0.03790196520257081,0.1725727,-0.04469966,0.004726526560572481,0.0479529175,0.05939636483359374,0.022345855,0.21727236,0.0,0.6416924089284936,65.67670534270907,0.9723229159366502,0.10145476476562501,0.027445068016985312,0.1446702,0.04422265,0.011046301052105254,0.04533669250000001,0.10145476476562501,0.020210089999999986,0.10044755,0.0,0.056354423211341736,174.8134425794933,0.21584983498025162,0.71781025859375,0.036007688073589596,0.795099,0.6390715,0.5165481209428312,0.055527800000000016,0.71781025859375,0.028094500000000022,0.15602749999999999,0.0,0.0019876516601714904,8452.503683859912,0.012271709927729808,0.68239265546875,0.043698006871525356,0.7759982,0.6151783,0.46756925204223604,0.08139035000000006,0.68239265546875,0.033675399999999966,0.16081990000000002,0.0,0.003227035591349563,7645.014550999373,0.018790124849247775,6,LAYING
-0.009551553255468744,0.32040426402988925,0.4450682,-2.168331,0.10275012457812706,0.192488725,0.17996624028046876,0.10338014499999999,2.6133992,0.78125,4.194535350774947,843.4631480411384,2.9871194120605233,0.007581922117968749,0.1674565688282593,0.3765871,-0.4260088,0.02809918798673649,0.22117313,0.12682226022578125,0.07006285500000001,0.8025959,0.78125,2.477830378315493,230.68269622127391,2.418690637071031,-0.06130236018046875,0.18311831877719043,0.1555753,-0.5777859,0.037290298035480646,0.14007278750000002,0.11936503973828125,0.06445813450000001,0.7333611999999999,0.390625,1.4005821340020486,336.29794475942174,2.1315293014919923,0.10109976145312499,0.06223272879990717,0.2801273,-0.05615842,0.014094074299761573,0.05614155999999999,0.10656067223437499,0.023493110000000005,0.33628572,0.0,0.3232228275026732,199.191163437408,0.777903562626349,0.7776281593750001,0.07660679994718611,1.017936,0.5841235,0.6105741560510987,0.06316762499999995,0.7776281593750001,0.026211949999999984,0.43381249999999993,0.0,0.012014311557196617,9955.583494544777,0.042560341429476546,0.63917340078125,0.05159509583713555,0.7816329,0.4821509,0.4112046901807116,0.05022422500000001,0.63917340078125,0.024724100000000027,0.29948199999999997,0.0,0.005700455412144929,6715.370201753737,0.028665777405243755,6,LAYING
-0.2167378958578125,0.7985769265811145,0.8854364,-3.536968,0.6847004231686105,0.40954697500000004,0.44694794376406244,0.21571809999999997,4.4224044,0.78125,1.5696436847182131,5993.957392584355,2.359352599116797,0.03416011636093749,0.25345369295129155,0.9701211,-0.5515048,0.06540568802044038,0.3227159,0.1990200683453125,0.173363975,1.5216259,0.390625,4.224874468597218,545.3751992044504,2.858420946628004,-0.08182480648835938,0.20865894709577545,0.4006077,-0.5777859,0.050233855159975076,0.24066273999999999,0.15111285955070314,0.069798795,0.9783936,0.0,1.7124947953709801,466.36635541862324,2.4584392019381758,-0.050865596984375,0.15687728213768398,0.2801273,-0.4665558,0.027197790607483365,0.24971381,0.134833853484375,0.12732601999999998,0.7466831,0.390625,1.3884120443646044,244.00988524036583,1.7521814830890978,0.6019457615625001,0.2677257113939594,1.017936,-0.1795554,0.4340157564044598,0.3923307750000001,0.61049002359375,0.1953759499999999,1.1974913999999999,0.0,0.1507657397171887,6523.756529409575,0.48327970481388743,0.74021629609375,0.18624853135599462,1.281363,0.3253131,0.582608680435015,0.30331604999999995,0.74021629609375,0.12972980000000006,0.9560499,0.0,0.052653824014697585,9261.303777511828,0.19359738672772686,6,LAYING
-0.20847591432656248,0.7675348785479476,0.8854364,-3.536968,0.6325719966419089,0.5548155,0.4223855947171875,0.1811010335,4.4224044,0.78125,2.3781681729954154,5539.03836630526,2.6112687147635345,-0.004424815593750002,0.22688185966703073,0.9701211,-0.5515048,0.051494957239008925,0.1317654025,0.153682826609375,0.06830001499999999,1.5216259,7.03125,4.9989865774792985,422.0274219678905,3.058236947589446,0.017815131353828128,0.1346137037487654,0.4006077,-0.4747971,0.018438228142114522,0.08377012,0.09534914533351563,0.0428035705,0.8754048000000001,1.5625,3.8578740245452217,153.6735080481694,2.9218077927431887,-0.18417366031250001,0.07411926739968272,-0.01032836,-0.4665558,0.03941360295276981,0.06809665000000001,0.18417366031250001,0.0346814,0.45622744000000004,0.0,0.3789207421234308,600.7543359375259,0.49586010806478725,0.19267001144765622,0.2533040294088129,0.9783739,-0.1795554,0.10128466462598076,0.4620835175,0.23231398771328127,0.15370582000000002,1.1579293,0.0,1.111574047551921,1133.9705105262285,1.5962785546955274,0.91106153671875,0.15070553090374925,1.281363,0.3253131,0.8527452807333111,0.07239902500000006,0.91106153671875,0.028715600000000008,0.9560499,0.0,0.034538366491199866,13785.33216331401,0.10662888769208989,6,LAYING
0.0800364705234375,0.2576858021155898,0.2793978,-0.753663,0.07280780922580397,0.17217430250000001,0.2280197205703125,0.07806375000000002,1.0330608,0.390625,1.3153426520988782,649.031805459135,2.0798292101939957,-0.018494700546875,0.11012048207024479,0.4405429,-0.3630309,0.012468574519701682,0.029291532500000002,0.0688280063125,0.015281935,0.8035738,1.5625,2.759820782028238,104.95298162337596,2.797632272887613,0.048399356875,0.060827651397416214,0.135509,-0.1693974,0.0060425009204392,0.03167103500000001,0.07164688515625,0.015017675000000005,0.3049064,0.0,0.6839074943192174,68.69020151494547,1.6144196274081515,-0.19305611156249997,0.029433539620848423,-0.09537732,-0.288964,0.03813699546624451,0.010959674999999974,0.19305611156249997,0.0059031999999999835,0.19358668,0.0,0.039597456685872515,617.739817776541,0.0964516346805522,-0.030094136052343748,0.06054010647150921,0.3093866,-0.08890109,0.004570761516318647,0.027821177500000002,0.056591018807031254,0.011552529999999998,0.39828769,0.0,1.9781210654228103,44.88089482397754,2.3498257572444827,0.9691328632812499,0.018389869460885725,1.033581,0.888465,0.9395566939905025,0.011911450000000046,0.9691328632812499,0.006362299999999987,0.14511600000000013,0.0,0.0010055479990545982,15390.926552123407,0.0023285389219286057,6,LAYING
0.19487829140625001,0.04852142946665104,0.2793978,0.1014594,0.04033187757890648,0.08753012500000001,0.19487829140625001,0.0415215,0.17793839999999997,0.0,0.026894244055376285,641.5112675315429,0.17027819957073684,-0.0253284371484375,0.014945464433317275,0.02243954,-0.0671657,0.0008648966355099003,0.0195929225,0.026154204273437502,0.009513145,0.08960524,0.0,0.810241313491126,12.341040336647902,0.8937807827844205,0.055677073671875,0.01920561156897318,0.0927452,0.01960727,0.0034687920484016725,0.03337986749999999,0.055677073671875,0.01675319499999999,0.07313793,0.0,0.06754932819699379,53.81119501992172,0.3024549978264093,-0.19960603125,0.0062430496666136415,-0.1814377,-0.2170045,0.039881543380515784,0.008155200000000029,0.19960603125,0.00405525000000001,0.03556679999999998,0.0,0.0025857894291858806,653.0999184549751,0.005747798336226637,-0.046115977890625,0.015583158338458586,-0.02442369,-0.08890109,0.002369518240610085,0.019794159999999998,0.046115977890625,0.009905365000000003,0.0644774,0.0,0.08985925078733996,36.83307387702593,0.31946694912250156,0.97164999921875,0.00493990315198739,0.9847474,0.9583884,0.9441281236249479,0.006363650000000054,0.97164999921875,0.0031233500000000247,0.02635900000000002,0.0,5.81543656764629e-05,15468.395271324294,0.00019730761468217154,6,LAYING
0.11782843703125001,0.04487595844839569,0.2085809,0.04383151,0.015897392219889384,0.074455405,0.11782843703125001,0.034322075,0.16474939000000002,0.0,0.0905015572807077,243.9680697677843,0.3558072750063223,-0.015051913546875002,0.011067931932333006,0.02243954,-0.05228332,0.00034905921868135577,0.012603551250000001,0.015877680671874998,0.006197207000000001,0.07472286,0.0,1.3568835155609742,4.715577027870157,1.1849460315999238,0.032194684328125,0.01690322049204402,0.07023235,0.009947104,0.0013222165619902744,0.018946209999999998,0.032194684328125,0.00993855,0.060285246,0.0,0.15773947390407497,19.32279063082042,0.5752257170822641,-0.200835546875,0.005318799760797448,-0.1814377,-0.2170045,0.04036320651947578,0.0053433749999999836,0.200835546875,0.0026285499999999795,0.03556679999999998,0.0,0.0023692355565358278,661.0790272125522,0.004274864268212306,-0.03267160390625,0.007475264901719749,-0.01894193,-0.05331323,0.0011233132871577734,0.008332840000000005,0.03267160390625,0.0038463699999999983,0.03437130000000001,0.0,0.06400339296998728,17.94663467998973,0.18219175043852,0.9731089390625,0.0042218583917925405,0.9850248,0.9619381,0.9469588313716246,0.005152524999999963,0.9731089390625,0.002534349999999963,0.023086700000000016,0.0,4.698298148221092e-05,15514.827478285752,0.00014732603131158262,6,LAYING
0.0481197207625,0.03435676185830274,0.1071934,-0.002013969,0.0034958946116490997,0.06693385500000001,0.048215137318750004,0.036561575,0.109207369,0.0,0.2081702173804932,47.60837423535663,0.7336088568423215,-0.00659228029375,0.007253925941145616,0.008444681,-0.02446343,9.607760103098992e-05,0.00952813975,0.00817891229375,0.0052141565,0.032908111000000004,0.0,1.1311507486862666,1.1431024487839214,1.5622110072905382,0.010626708657578122,0.011179081161423583,0.03198244,-0.01002326,0.00023789879250674155,0.0197012480325,0.012641371479921875,0.009636165499999998,0.0420057,0.0,0.5366545899952158,2.874039231577288,1.2679338653757626,-0.19930320703125,0.0029054289500751755,-0.1922968,-0.2079937,0.039730209850325236,0.0038963500000000206,0.19930320703125,0.002047750000000015,0.015696900000000014,0.0,0.000560314968938077,650.8706115095346,0.001422599377677958,-0.02355774734375,0.006551948719209003,-0.01217713,-0.03686137,0.0005978954919311046,0.011095127500000003,0.02355774734375,0.005741315,0.024684239999999996,0.0,0.050615939919359684,9.444270419066969,0.2088774140312433,0.9745531828124999,0.00357148350601919,0.9850248,0.9655085,0.9497666616244078,0.004471575000000061,0.9745531828124999,0.0022288500000000044,0.019516300000000042,0.0,3.62118727406149e-05,15560.872495223415,0.00010841321539561036,6,LAYING
0.005523137333984376,0.01751110297464546,0.06009011,-0.0200018,0.0003371437733986891,0.018637531,0.013069608244140624,0.0096474765,0.08009191,0.390625,1.3813098526310017,3.012116354950712,2.2015004913693685,0.0002472017054687501,0.005838816469803854,0.01158231,-0.01540932,3.41528864512394e-05,0.0066661945,0.00464170573984375,0.00311933,0.026991630000000003,1.171875,4.4849939724985495,0.28029585829344505,3.147412493581467,-0.0022637730846093752,0.006487258925312581,0.01701593,-0.01598679,4.720919694264958e-05,0.00616679105,0.005664511456484375,0.003416169185,0.03300272,0.390625,1.9602948766445398,0.42876662668140153,2.290683170370697,-0.19803603203124998,0.002937033523385394,-0.1912884,-0.2057745,0.03922689614859977,0.00440370000000001,0.19803603203124998,0.0022210000000000146,0.014486100000000002,0.0,0.0006144009020693107,642.6228079326632,0.0014509633604774797,-0.016894076953125,0.0032815758244974127,-0.01071455,-0.0257553,0.00029617857599003515,0.004668365000000001,0.016894076953125,0.0023465150000000004,0.015040749999999999,0.0,0.06747791807275923,4.7643759378352675,0.14598618647802428,0.97424469453125,0.0036717038727635664,0.9849173,0.9647819,0.9491662062316177,0.004904900000000101,0.97424469453125,0.002447400000000044,0.020135400000000025,0.0,4.3204570245549824e-05,15551.028687417473,0.00011496918471684944,6,LAYING
-0.0060042573753906255,0.008110744191710534,0.01199177,-0.02494424,0.00010183527797329887,0.013015286875,0.008394411175390625,0.0066624957,0.03693601,0.0,0.8922622807603187,1.1295745847314398,1.6782746148769934,0.002543336938046875,0.004352897479810093,0.01158231,-0.01112572,2.541627925017072e-05,0.005371352825,0.0040722177880468755,0.0024317295650000004,0.02270803,0.0,4.112123076154436,0.26121354600020796,2.5159087939261413,-0.00439023765390625,0.004547002481123173,0.007120273,-0.01598679,3.994941822111655e-05,0.00606926475,0.00536192554453125,0.0027312560000000005,0.023107063,0.0,1.0187632921793712,0.4851677640016554,1.5709998764569033,-0.1992261796875,0.0036702972640458432,-0.1886926,-0.2082813,0.0397045417548825,0.005155350000000003,0.1992261796875,0.0026794000000000123,0.019588700000000014,0.0,0.0009670383459330508,650.4088620421625,0.0021500296955710026,-0.0128492675,0.004276545589795874,-0.001558632,-0.02150609,0.0001833925174681588,0.004944477499999999,0.0128492675,0.0025689350000000005,0.019947457999999998,0.0,0.18216240287831795,2.8549109929435783,0.34652741838753526,0.97315004296875,0.003792968742779273,0.9822782,0.9647819,0.9470353927419637,0.006275100000000089,0.97315004296875,0.0031532499999999963,0.01749630000000002,0.0,4.360937613347433e-05,15516.110023552079,0.00012207767928873619,6,LAYING
-0.46622599656249997,0.5884482093400366,0.8611814,-1.485695,0.5636379749461918,0.9942575125,0.6226098729687499,0.48617221,2.3468764,0.0,0.9787211795316232,6398.0467031212875,1.717612246600604,0.070601635421875,0.6562920866708519,1.613873,-1.445156,0.43570389395102443,0.8599876000000001,0.5239242259375,0.41957491,3.0590289999999998,0.78125,3.1133452798221106,3610.275945556597,2.443135660346415,0.0752891383125,0.2642686053422219,0.7457733,-0.5953186,0.07550635011736177,0.348964855,0.22084512956250002,0.17668298,1.3410919,2.734375,3.2913826541899143,664.9840315699109,2.88171597271658,1.00515624609375,0.21863843047215065,1.531087,0.5084297,1.0581418423406048,0.2621197999999998,1.00515624609375,0.12482875000000004,1.0226573,0.0,0.09335680139014944,16945.00512538207,0.17055660805895728,-0.2383587159296875,0.14784540566708712,0.01665338,-0.6488126,0.07867314143651502,0.159327225,0.2388007979765625,0.08224129999999999,0.66546598,0.0,0.6911469736497505,1109.921536487195,0.8841998647180322,-0.04591720158593751,0.14385809383500237,0.3586488,-0.3648347,0.02280354056332397,0.15222958000000003,0.1268105645234375,0.06993261,0.7234835,0.78125,1.7396886214325344,204.09192799751028,2.198787130897807,1,WALKING
0.12558358382812498,0.5227798838896571,1.079504,-1.42357,0.289070043526799,0.643027375,0.42950117976562496,0.32328115,2.503074,4.6875,3.0687411696790856,2497.5979785730224,2.4854540728284853,-0.106016830046875,0.6971052305497687,1.500908,-1.445156,0.49719527071303404,1.0518615500000001,0.5742773240156249,0.53988415,2.946064,0.78125,2.704963415904857,4165.110754867869,2.1438607345344116,4.796548437499201e-05,0.29052545206977426,0.7457733,-0.6241102,0.08440504060103438,0.39758547499999997,0.234443161796875,0.20144814,1.3698834999999998,2.734375,3.8899210195987846,691.4462767158336,2.496281846780104,0.99679782890625,0.2503762249031146,1.531087,0.5084297,1.0562941657089486,0.41775257499999996,0.99679782890625,0.19438145000000007,1.0226573,0.0,0.11832562865568774,16792.793027143114,0.21413180888466116,-0.25853001697656247,0.17340778015598277,0.01665338,-0.7040854,0.09690802789652736,0.216649,0.25893268739843744,0.10664615000000001,0.72073878,0.0,0.8201273938198461,1341.4101613439675,0.941066090751281,-0.03350532237109375,0.13472347250009795,0.3577197,-0.3648347,0.019273020669675567,0.15694712500000002,0.11199742539453125,0.077040845,0.7225543999999999,0.78125,2.836126477736602,167.11382549439782,2.6529323274278886,1,WALKING
0.24636389251562502,0.48271912297053204,1.079504,-1.026,0.29371291921689,0.69555357,0.465974281890625,0.32361305,2.105504,0.0,2.2193259820421276,2903.311048989653,2.195941476822606,-0.08965132049999999,0.7164216984585737,1.54031,-1.564677,0.5212974092896614,1.044303,0.5976751966875,0.5577677,3.1049870000000004,0.78125,2.7756365184023006,4336.310519242375,2.1454965741073755,0.006927958265625003,0.3171011908407691,0.7861582,-0.8303053,0.1006011618383641,0.43496035,0.26021186309375,0.21584756,1.6164635,2.734375,3.746058582286905,824.5833769723574,2.5836496735013523,1.00031071171875,0.23538556219524653,1.528028,0.5814143,1.0560278828692446,0.32576634999999987,1.00031071171875,0.15487499999999998,0.9466136999999999,0.0,0.09477440834217728,16848.07273565168,0.1874834680115547,-0.23489924676562496,0.173633516837733,0.01473926,-0.7040854,0.08532625430049728,0.1880872,0.23546972034374997,0.08705745,0.71882466,0.0,0.9639855473889724,1151.0302918583654,1.0879400456510737,-0.035728561167968756,0.12973116076692467,0.3577197,-0.3259199,0.018106704157066937,0.125292964,0.10969682583203125,0.061024880499999996,0.6836396,0.78125,2.285136345635408,158.7975160294749,2.4074542657170155,1,WALKING
0.12763623463281248,0.5564762131457496,1.038888,-1.605516,0.3259567841882761,0.6859926000000001,0.4781203716640625,0.33467203999999995,2.6444039999999998,4.6875,3.491195821882627,2803.6995759026604,2.710491655820394,-0.04020771619609374,0.7968041694486799,2.128034,-1.564677,0.6365135448925063,0.9878208500000001,0.6351022068210938,0.49649645000000003,3.692711,2.734375,3.97700078468907,5228.053429264648,2.559338245697888,-0.0267648990703125,0.3513049387738488,0.7861582,-0.8303053,0.12413151982914167,0.560326425,0.2946014176484375,0.28085395,1.6164635,2.734375,3.7192716179774923,1022.8062558825263,2.3466301444039006,1.02285026875,0.24999200997326637,1.533829,0.5714407,1.108718677332421,0.37009725000000004,1.02285026875,0.17648445000000001,0.9623883000000001,0.0,0.10926758036223502,17653.310380614468,0.20214421010249792,-0.24004275233593753,0.20054852692534,0.08176948,-0.7313113,0.09784023460093605,0.21194844000000002,0.24301077008593752,0.10679092999999998,0.81308078,0.0,1.1297788691294353,1273.5832178345154,1.2567726058006146,-0.050717068726562495,0.14286146433474045,0.2942016,-0.3827815,0.02298161905208118,0.13642121499999998,0.1230269830078125,0.069430511,0.6769831,0.78125,2.1829280494951475,209.33720409833327,2.3929286287658273,1,WALKING
0.03755891040624999,0.5415984831157798,0.941785,-1.605516,0.29473958866421834,0.754106425,0.446043915875,0.34333990000000003,2.547301,4.6875,3.7239576278408837,2426.0632386162965,2.349029747747732,0.038828459264843754,0.8664845528308505,2.128034,-1.494807,0.7523031295433604,1.0918100750000002,0.6954744486882813,0.55683558,3.622841,2.734375,3.601442358876538,6175.261928073662,2.4160853006454124,-0.036362444367968746,0.3358665206019839,0.6784206,-0.7612723,0.11412854702169653,0.542017175,0.27086073371171876,0.26701865,1.4396929,2.734375,3.0621656979682164,945.8139749943094,2.2358118692473545,1.0052535554687498,0.2515832629623438,1.533829,0.5714407,1.073828848985343,0.41732357500000017,1.0052535554687498,0.20169379999999998,0.9623883000000001,0.0,0.10654377037958283,17075.130908458428,0.20069577656159077,-0.24527713239062499,0.1995600090344076,0.08176948,-0.7523638,0.09998506887958104,0.24381568250000002,0.248794948546875,0.10371487000000001,0.8341332800000001,0.0,0.9977024419037033,1311.921523141028,1.1721092475119452,-0.044789579146875,0.15769990378989013,0.378188,-0.3885285,0.026875366055494784,0.17411095999999998,0.13306261145937498,0.068983055,0.7667165,0.78125,2.4883424508267407,236.59880351123073,2.567676672176876,1,WALKING
-0.015348241070312492,0.42597648807697674,0.8499984,-1.195586,0.1816915368983471,0.5984737,0.3478320813046875,0.322404461,2.0455844,4.6875,4.324799902113811,1490.553936907829,2.3361241326169306,0.0776376071015625,0.7846720446963575,1.830636,-1.433065,0.6217378157644192,1.2151106249999999,0.6369575438203124,0.5561278000000001,3.263701,0.78125,3.2293079150415642,5143.046052127905,2.324048522343596,-0.0007423726101562465,0.30486587177135044,0.6784206,-0.7879287,0.09294375088799779,0.3741965,0.23402230275078123,0.17804907,1.4663493,2.734375,3.0091316755958055,761.4502785129687,2.169129318903647,0.99999955859375,0.25227763649613155,1.590203,0.6027336,1.0636431230637693,0.418401775,0.99999955859375,0.2023243500000001,0.9874694,0.0,0.09387044929091899,16905.358082067578,0.19624885058960642,-0.216282132625,0.17589097099646886,0.05042618,-0.7523638,0.07771559457089874,0.18813218500000006,0.21865078034375,0.09176493000000001,0.80278998,0.0,1.071032612164095,1019.8792040455526,1.2142962722629465,-0.011979294412500001,0.15971131419172568,0.4211553,-0.3885285,0.025651207375469467,0.253533525,0.13213560233437502,0.08431945499999999,0.8096838,0.78125,2.7926920734173004,211.32999899778085,2.1879278277709253,1,WALKING
-0.009871683742187491,0.4316534461264968,0.8499984,-1.123589,0.18642214769278626,0.5537989750000001,0.3436532680234375,0.28684681,1.9735874,4.296875,4.380538347728554,1528.015482393607,2.2971877827132716,-0.010536542801562496,0.6867696987991445,1.674102,-1.365554,0.4717636379228768,0.9953576749999999,0.5548687454265625,0.48522981499999995,3.039656,0.78125,3.4289409876727084,3865.6267068046227,2.4319163635534613,0.02042575387421875,0.32899019234139076,0.8261808,-0.7879287,0.10865175807815547,0.40374555,0.25778561606328126,0.206935055,1.6141095,2.734375,3.1951380054859113,893.4933188243327,2.316398682430085,1.01668975390625,0.24912497045841894,1.590203,0.5296504,1.0957213066038594,0.3513094000000001,1.01668975390625,0.18857810000000003,1.0605526,0.0,0.11162857279887363,17443.900169318218,0.20411380599928272,-0.21664662066406248,0.1772952407152481,0.08217535,-0.6660752,0.07836936062543598,0.20872849,0.22052398464843748,0.099769585,0.74825055,0.0,1.0294738927149711,1026.49953431621,1.2022033225617046,-0.0073533148749999975,0.15141787195221282,0.4211553,-0.3492644,0.022981443186187618,0.245045075,0.12492278639062501,0.10482505,0.7704196999999999,0.78125,2.840450800259254,188.72780803563535,2.2904461551153235,1,WALKING
0.011928865773437505,0.4594107239410782,0.7712677,-1.242651,0.2112005111107062,0.6213915999999999,0.3710306461015625,0.32276355,2.0139187,4.296875,4.340915330490568,1731.4158659900968,2.3777512913600147,-0.067910667840625,0.7176060643348472,1.817055,-1.230092,0.5195703223767085,0.92327625,0.5857960842625,0.4281271,3.047147,0.78125,3.210235437284244,4294.1451096455685,2.369754005117389,0.0276604893609375,0.3405821555202292,0.8726726,-0.7683791,0.11676130733049211,0.46764135,0.2733113462640625,0.23910786,1.6410517,2.734375,3.495498881764934,962.7797029473304,2.4873779554987836,0.9981040828125001,0.24491071816877447,1.496887,0.4938898,1.0561930200009266,0.35487955000000004,0.9981040828125001,0.17852985000000005,1.0029972,0.0,0.1294611751910033,16813.319624457014,0.20763314141471317,-0.2355499903671875,0.18153404656629507,0.08217535,-0.6897217,0.0884384080247159,0.25187824999999997,0.23938536027343751,0.110581595,0.77189705,0.0,0.965302594183198,1179.0114596963078,1.126057365680764,-0.0284815736328125,0.14284270117384315,0.3533934,-0.3868657,0.02121523731524118,0.1933679,0.11985894052343748,0.08709694999999999,0.7402591000000001,0.78125,2.8852651670489586,180.4542790972561,2.506767549919381,1,WALKING
-0.2182447922421875,0.4657378428120825,0.7951254,-1.424621,0.26454252756808766,0.678537975,0.3982867335390625,0.3082163,2.2197464,0.0,2.6153954439611398,2557.3938874099254,2.2627353499398906,0.0688841202109375,0.6368777419961856,1.417763,-1.049573,0.4103582802673949,0.816467225,0.5060533857734375,0.3877136,2.4673360000000004,0.78125,2.742069457842765,3400.7062524998883,2.186437620524527,-0.019117914804687504,0.276368224761678,0.727272,-0.652981,0.07674489032440064,0.30125179999999996,0.21567826167968748,0.155603225,1.3802530000000002,2.734375,2.8301318416162355,631.7381198109688,2.5310283278123884,1.01260667265625,0.21039813539883837,1.44589,0.6220394,1.0696396488872697,0.30672164999999996,1.01260667265625,0.15713075000000004,0.8238505999999999,0.0,0.07546383068721325,17162.35554307191,0.15608185288489562,-0.2485106289453125,0.16963603521828358,0.03071216,-0.8087442,0.09053391714337354,0.2160085,0.24914344378906253,0.09128784999999998,0.83945636,0.0,0.7733953058343866,1247.5722412431962,0.9567926451976737,-0.032890744374999996,0.14778355206804286,0.3185575,-0.3261112,0.02292177932738953,0.242302825,0.12999158292187502,0.09333019499999999,0.6446687,0.78125,1.979944016311389,196.64427263797523,2.1167997446496565,1,WALKING
-0.044413977760937515,0.4633750819940234,0.7981004,-1.424621,0.21668906803351695,0.5066834499999999,0.3623997812296875,0.30337884000000004,2.2227214,4.6875,4.646186415900583,1791.508519812049,2.4306569310993473,-0.0200806558984375,0.6968673152429552,1.395472,-1.186738,0.48602728779523585,1.084330725,0.5782093728515625,0.5518142749999999,2.58221,2.734375,3.0085462696121357,3985.0941935252513,2.1316226667271705,0.0281301111484375,0.3021174757721763,0.7730388,-0.9526131,0.09206627232017495,0.3294233,0.2313535916640625,0.18024194999999998,1.7256519,2.734375,3.2555335802960546,760.6922643778786,2.5460116217756323,1.00521228046875,0.2397378010108081,1.591402,0.6220394,1.0679259420386826,0.40129199999999976,1.00521228046875,0.1923442999999999,0.9693626,0.0,0.10066772166613644,17026.09822690564,0.19016816793585511,-0.24704625890625,0.19038195984619732,0.00978799,-0.8087442,0.097277144674453,0.24404912499999998,0.247223240578125,0.10224765000000001,0.81853219,0.0,0.969678253988979,1296.868418757541,1.156725425505275,-0.0313737775,0.14144852408005973,0.3680056,-0.3214357,0.020991998879046743,0.1504987975,0.118838408078125,0.06958420000000001,0.6894412999999999,0.78125,2.819034083707668,180.04050541637866,2.585372885586012,1,WALKING
0.0417240801140625,0.4257199115558179,0.8498686,-1.209773,0.18297834195645812,0.487674375,0.3367433220734375,0.24870141,2.0596416,4.6875,4.361240929066213,1513.2547447875493,2.450805837789135,-0.09964951435937501,0.6894859564275229,1.501085,-1.186738,0.4853209098228352,0.932213325,0.570480774546875,0.4786614,2.687823,0.78125,2.7142060258331324,4057.294681810315,2.0427721808333152,0.043118011414062504,0.3160065268454403,0.8352017,-0.9526131,0.10171928791722122,0.36625605,0.2464141649921875,0.19099135,1.7878148,2.734375,3.2668713368448454,848.5435621634945,2.309024219598336,0.9894290968749999,0.24044021168219695,1.591402,0.5611522,1.0367814331366578,0.36529152499999995,0.9894290968749999,0.18029194999999998,1.0302498,0.0,0.10149231597175216,16513.061343271318,0.1979384322880593,-0.231764941296875,0.1764555738089895,0.01385738,-0.7399197,0.08485155754260365,0.19277682500000004,0.23226708584375,0.09378575,0.75377708,0.0,0.8958609649792391,1135.1387725665074,1.0922472532905863,-0.0407739736171875,0.1408594762997629,0.3680056,-0.3234537,0.021503908987978566,0.1507513125,0.12410516528906251,0.0715500885,0.6914593,0.78125,2.3720150430687763,189.78111271238814,2.3763957028249147,1,WALKING
0.008233428359375001,0.44258114135144616,0.8498686,-1.209773,0.1959458560224977,0.5033842749999999,0.352379159140625,0.259737,2.0596416,4.6875,4.261848180896586,1605.7593868885094,2.122172229867696,-0.040122372343750004,0.7149277114312601,1.882439,-1.270662,0.5127314373348296,0.904209375,0.58102871625,0.4709837,3.153101,0.78125,3.683643168380429,4214.178805236465,2.588624699325224,0.00584030628125,0.3320491467726238,0.8352017,-0.7780301,0.11029074504988631,0.48289925,0.26977483575,0.22918311,1.6132317999999999,2.734375,3.453329825824099,903.8329123428821,2.277415638117165,1.00792252578125,0.2472941492435259,1.572386,0.5611522,1.0770622142273338,0.370296575,1.00792252578125,0.17998300000000006,1.0112338,0.0,0.11145110575518245,17145.659095450785,0.19796122125113547,-0.23562358688281249,0.18427677653846708,0.01385738,-0.7318584,0.08947640506693043,0.1855768,0.2361599410078125,0.089357775,0.74571578,0.0,1.0288024215272646,1187.8185895666938,1.095585695874948,-0.055630203343750004,0.1371299846011843,0.3033157,-0.3728536,0.021899352200788015,0.145136843,0.12538500990625,0.08160792,0.6761693,0.78125,1.995390057711739,204.75408197872164,2.2456022327386926,1,WALKING
