body_gyro_x_mean,body_gyro_x_std,body_gyro_x_max,body_gyro_x_min,body_gyro_x_energy,body_gyro_x_iqr,body_gyro_x_sma,body_gyro_x_mad,body_gyro_x_amplitude,body_gyro_y_mean,body_gyro_y_std,body_gyro_y_max,body_gyro_y_min,body_gyro_y_energy,body_gyro_y_iqr,body_gyro_y_sma,body_gyro_y_mad,body_gyro_y_amplitude,body_gyro_z_mean,body_gyro_z_std,body_gyro_z_max,body_gyro_z_min,body_gyro_z_energy,body_gyro_z_iqr,body_gyro_z_sma,body_gyro_z_mad,body_gyro_z_amplitude,total_acc_x_mean,total_acc_x_std,total_acc_x_max,total_acc_x_min,total_acc_x_energy,total_acc_x_iqr,total_acc_x_sma,total_acc_x_mad,total_acc_x_amplitude,total_acc_y_mean,total_acc_y_std,total_acc_y_max,total_acc_y_min,total_acc_y_energy,total_acc_y_iqr,total_acc_y_sma,total_acc_y_mad,total_acc_y_amplitude,total_acc_z_mean,total_acc_z_std,total_acc_z_max,total_acc_z_min,total_acc_z_energy,total_acc_z_iqr,total_acc_z_sma,total_acc_z_mad,total_acc_z_amplitude,Activity,ActivityName
0.0222503515984375,0.014434088948273863,0.05054452,-0.003862224,0.0007034210700207719,0.021992247499999996,0.0223698310828125,0.008677869000000001,0.054406744,0.019402769061484373,0.019828366001697104,0.07485018,-0.009021585,0.0007696315455505529,0.0267142335,0.020501480699453126,0.011957479,0.083871765,0.00946815436515625,0.005943238143615174,0.02285864,-0.006890512,0.0001249680267141497,0.0082998615,0.00989785894734375,0.004028347999999999,0.029749152,1.0193045703124999,0.001790556184033647,1.024606,1.012817,1.0389850131513985,0.0021539999999999893,1.0193045703124999,0.0010980000000000434,0.011788999999999827,-0.12426187265625,0.0032699981286241505,-0.1172102,-0.132631,0.015451705883799297,0.00506520000000002,0.12426187265625,0.0025026999999999966,0.015420799999999998,0.09973179460937501,0.00396959917623656,0.109485,0.08874205,0.009962188573626539,0.004066242500000011,0.09973179460937501,0.0022556550000000022,0.020742949999999996,5,STANDING
0.01192575516875,0.016333965468020836,0.05524938,-0.03864973,0.00040902206425546444,0.010832965,0.016669359153125,0.0058403635,0.09389911000000001,-0.004313741815078125,0.010356062224478161,0.01685763,-0.03016049,0.00012585639324441707,0.014572066,0.009054326935390626,0.0072568675,0.04701812,0.0063075711740625,0.007430688189073518,0.02513287,-0.009759107,9.500058107910084e-05,0.010422081125000001,0.0079904659765625,0.005331918,0.034891977000000005,1.01944796875,0.0019319124427684116,1.024606,1.012893,1.0392778932741873,0.002226999999999979,1.01944796875,0.0011404999999999887,0.011712999999999862,-0.12293556953125001,0.004930122077050277,-0.1085598,-0.132631,0.015137460359667421,0.006164350000000013,0.12293556953125001,0.003207950000000001,0.0240712,0.09693947789062499,0.0049184870693497204,0.1057878,0.08109954,0.009421453888758334,0.005656649999999999,0.09693947789062499,0.0028105000000000005,0.024688260000000004,5,STANDING
-0.004149542187499999,0.02225643143116854,0.05524938,-0.03864973,0.0005125674404161491,0.0366079875,0.019791709359375,0.018609985000000002,0.09389911000000001,-0.012640026993750001,0.006920124535633173,0.000761135,-0.03750257,0.00020765840599140092,0.007811963,0.012651919728125,0.003499104,0.038263705,0.004334764210234375,0.008753414795710247,0.02860941,-0.009759107,9.54124513440879e-05,0.01324301575,0.0074186284466406256,0.006722818,0.038368517,1.0199265078125,0.0029039851228422242,1.027664,1.009013,1.0402585144681953,0.0030964999999998355,1.0199265078125,0.0016320000000001889,0.018650999999999973,-0.12499678124999998,0.006459556158801544,-0.1085598,-0.1371418,0.015665921188629063,0.010127549999999999,0.12499678124999998,0.004815249999999993,0.02858200000000001,0.09289679640625,0.006144959011692115,0.1057878,0.08109954,0.00866757530379964,0.008946695000000005,0.09289679640625,0.004379234999999995,0.024688260000000004,5,STANDING
-0.016228377761718753,0.009165049486718514,0.01036105,-0.03751574,0.00034735837687104693,0.013132168,0.016622271683593752,0.0065553700000000005,0.04787679,-0.007696515702343749,0.007792828643806709,0.007778423,-0.03750257,0.00011996453222815823,0.009072466000000001,0.00868193997421875,0.0045750695,0.045280993,-0.00035190115179687504,0.008186481257612248,0.02860941,-0.01322325,6.714230980187257e-05,0.00690697325,0.006022423056484375,0.003583296,0.04183266,1.0203490546874998,0.0025741396600023106,1.027664,1.009013,1.041118819596664,0.0027857500000001423,1.0203490546874998,0.0013719999999998178,0.018650999999999973,-0.13049271093749998,0.004028792529953811,-0.1167494,-0.1435455,0.017044578777067346,0.004376174999999982,0.13049271093749998,0.002273750000000005,0.02679609999999999,0.08765391765625001,0.004945062505138251,0.09873661,0.07688773,0.00770766292366838,0.007823602500000013,0.08765391765625001,0.0040261700000000095,0.02184888,5,STANDING
-0.00648257872109375,0.014543989192367102,0.04370605,-0.02490169,0.0002535514485028685,0.014639331,0.01346347471640625,0.006886248500000001,0.06860774,-0.00016643552968750007,0.007815092695810325,0.01744664,-0.02058165,6.110337462965026e-05,0.00996685575,0.0062933819296874995,0.0048833950000000004,0.03802829,-0.003957091590625,0.008259952032748819,0.01989048,-0.02114078,8.388538143990644e-05,0.0097547979,0.0073606512140625,0.005181331,0.04103126,1.0202553437500002,0.0019486496223246328,1.026194,1.013645,1.0409247636857812,0.0025060000000001192,1.0202553437500002,0.0012220000000001674,0.012549000000000143,-0.13020888671875,0.0038759088499177173,-0.1214556,-0.1435455,0.01696937684994914,0.004877025000000007,0.13020888671875,0.002444700000000008,0.022089899999999996,0.08499887359375,0.003636709271449889,0.09338777,0.07459499,0.00723803416653134,0.004742174999999987,0.08499887359375,0.002479519999999999,0.018792779999999995,5,STANDING
-0.00113513005390625,0.014546393759712594,0.04370605,-0.02306482,0.00021288609165188668,0.020332153250000002,0.01163340054765625,0.0102363205,0.06677087000000001,0.00178172668203125,0.00801384050209767,0.01744664,-0.02058165,6.73961895625231e-05,0.01019447825,0.00659254021640625,0.0052785490000000004,0.03802829,-0.00324004854921875,0.010345963162735162,0.02442312,-0.02497604,0.00011753686836596746,0.01569882975,0.00895931531015625,0.0080330145,0.04939916,1.020177453125,0.0022676281036697167,1.026194,1.013645,1.040767178001828,0.0029370000000001895,1.020177453125,0.0014079999999999648,0.012549000000000143,-0.12627476875,0.004217399576785846,-0.1181566,-0.1368123,0.01596310368205625,0.006205474999999988,0.12627476875,0.0031589500000000006,0.018655699999999997,0.085844796640625,0.0038772622820662057,0.09525821,0.07459499,0.0073843622730741946,0.004875062499999999,0.085844796640625,0.002241304999999999,0.020663219999999996,5,STANDING
-0.0009543785406250003,0.011947292373131255,0.02019744,-0.02453928,0.0001436486334478858,0.018079393,0.0100339145171875,0.009398367,0.04473672,-0.0039313067640625,0.010234126719707737,0.01464141,-0.03342406,0.00012019252258819942,0.011577432250000002,0.007848374509375,0.005610581,0.04806547,0.0040416269709375,0.012238016855504451,0.02952505,-0.02497604,0.0001661038051278205,0.01678545875,0.010339804421250001,0.007781751000000001,0.05450109,1.020628984375,0.002430580553670425,1.027167,1.014804,1.041689431468172,0.0033015000000000683,1.020628984375,0.0016249999999998765,0.012362999999999902,-0.12735727265625002,0.006275145292101746,-0.1174678,-0.1475441,0.01625925234687539,0.007450750000000006,0.12735727265625002,0.0036733500000000127,0.030076300000000014,0.08544469765624998,0.00546447720774645,0.09984689,0.06887585,0.007330656868721955,0.0065641325,0.08544469765624998,0.0035076750000000087,0.03097103999999999,5,STANDING
0.00358354369921875,0.01114060846988615,0.0244408,-0.02453928,0.00013695494252350944,0.0161120185,0.009783595313281249,0.0075600605,0.048980079999999995,-0.0016042518234374997,0.011608545396897867,0.01756218,-0.03342406,0.00013733195014484115,0.014314924,0.0091652976609375,0.0073972595,0.05098624,0.0034357441303125,0.012543910647677634,0.02952505,-0.01486549,0.00016915403206589717,0.022994730999999997,0.0111417981509375,0.010802260000000001,0.04439054,1.0206098906249998,0.002416823839755827,1.027167,1.014804,1.0416503898790468,0.003470249999999897,1.0206098906249998,0.0017840000000000078,0.012362999999999902,-0.13546710625000002,0.007483393180442007,-0.1174678,-0.150936,0.018407338049241877,0.010695449999999995,0.13546710625000002,0.005658750000000004,0.03346819999999999,0.07896619046875,0.007028493033579888,0.09984689,0.0662862,0.006285058951469985,0.008901942499999996,0.07896619046875,0.004501600000000001,0.03356068999999999,5,STANDING
0.0029330078073437496,0.009601188888869109,0.0244408,-0.01641951,0.00010078536287768301,0.0147144765,0.00808804462609375,0.00662414435,0.04086031,0.0035838500529687496,0.007423748414946768,0.01756218,-0.0309996,6.795602173058876e-05,0.007815724080000001,0.00665530023921875,0.00404646,0.04856178,-0.0037486552054687497,0.008337280862759868,0.02030669,-0.02062724,8.356266803402986e-05,0.0111259905,0.00784102936484375,0.0048273790000000006,0.04093393,1.0205739375,0.0021191526341249587,1.027036,1.014837,1.0415756527121407,0.002639500000000128,1.0205739375,0.0012784999999999602,0.012199000000000071,-0.13854310546875,0.004874375952867399,-0.1272049,-0.1520718,0.019217951613855075,0.007217374999999998,0.13854310546875,0.0033179999999999876,0.024866899999999997,0.07401286828125,0.003633565402909661,0.08334509,0.0662862,0.005491107468754885,0.005069795000000002,0.07401286828125,0.00250185,0.017058889999999993,5,STANDING
0.00439301099303125,0.014757130126430757,0.0405905,-0.03092159,0.00023707143515330363,0.01943692325,0.011555163671656252,0.008519282,0.07151209,0.0015412718943750001,0.011684397974100365,0.03113045,-0.03243686,0.00013890067506955103,0.012127299,0.008892785024375,0.005468381,0.06356731,-0.0032561141890625,0.011422808110617879,0.02262379,-0.04322442,0.00014108282474421176,0.011835944000000001,0.008959520549999999,0.006031513,0.06584821,1.0212077578125,0.0030478674505353288,1.02821,1.01161,1.0428745741124297,0.0035644999999999705,1.0212077578125,0.0018025000000001512,0.01660000000000017,-0.13428446328125,0.006816301841024105,-0.1184379,-0.1520718,0.018078779049521328,0.007673774999999994,0.13428446328125,0.0035936000000000162,0.03363390000000001,0.074693664765625,0.005460918928520491,0.08763644,0.05868553,0.0056089651916634425,0.007884097500000006,0.074693664765625,0.003947190000000003,0.028950909999999996,5,STANDING
0.003059626775921876,0.01499477452610603,0.0405905,-0.03092159,0.00023420457909669633,0.015944378,0.011417926692046877,0.008205253874999999,0.07151209,0.0024628152609375005,0.010989109569373068,0.03113045,-0.03243686,0.00012682598813719336,0.01074056775,0.0084972185953125,0.005329026,0.06356731,-0.00037665276171874987,0.01139386926801217,0.02262379,-0.04322442,0.00012996212419946258,0.011380186,0.00828561186640625,0.00519091,0.06584821,1.0209990234375,0.0030080077825303552,1.02821,1.01161,1.0424480539711487,0.003682500000000033,1.0209990234375,0.0018730000000001246,0.01660000000000017,-0.1317973015625,0.005816566087504728,-0.1184379,-0.1511128,0.017404361140206877,0.0063453749999999864,0.1317973015625,0.0032112000000000113,0.03267489999999999,0.07593839664062502,0.0057083331957558,0.08763644,0.05868553,0.0057992251522226545,0.007587917499999999,0.07593839664062502,0.0037846599999999953,0.028950909999999996,5,STANDING
-0.0036079439222656247,0.006749749867619313,0.009651808,-0.01777415,5.857638262164039e-05,0.009057599,0.006408759115234374,0.004713401549999999,0.027425958,-0.00014777854296875003,0.005383871842662644,0.01458686,-0.01160135,2.900791451597761e-05,0.0072372255,0.00443997711796875,0.0035805425,0.02618821,0.0023212706618125,0.004213850094705424,0.01171891,-0.01437724,2.314483010604035e-05,0.0052493546925,0.0038553293834999998,0.0026219006999999997,0.02609615,1.0209004375000001,0.0018649080982299736,1.025468,1.01574,1.0422411811699064,0.0027477499999999377,1.0209004375000001,0.0011959999999999749,0.009727999999999959,-0.13407601015625,0.0039697898365310185,-0.1238283,-0.143184,0.017992135730765076,0.006221599999999994,0.13407601015625,0.0029824500000000115,0.019355700000000003,0.076008878984375,0.004126538439069543,0.08714827,0.06666255,0.005794378003950482,0.004975169999999987,0.076008878984375,0.0025978600000000074,0.02048572,5,STANDING
-0.0015405563046874998,0.005642852485634789,0.008516866,-0.01338408,3.421509790254712e-05,0.009908143,0.005015122696875,0.0049151645,0.021900945999999998,-0.0007244964050781249,0.004207546425868601,0.009498893,-0.01160135,1.8228341966810774e-05,0.005927459249999999,0.003539669862890625,0.0031380129,0.021100242999999998,-6.606769298437502e-05,0.00417765164567773,0.009938884,-0.01031546,1.7457138212690125e-05,0.00569173525,0.003368267294546875,0.002902497556,0.020254344,1.0211780468750002,0.0016237363156629638,1.025468,1.016271,1.0428072399390624,0.0023484999999998646,1.0211780468750002,0.0009040000000000159,0.009197000000000122,-0.13583301484375,0.003391985160273263,-0.127627,-0.143184,0.01846211348486992,0.0038727249999999935,0.13583301484375,0.002005350000000003,0.015557000000000015,0.074728438984375,0.003676064367083838,0.08494946,0.06542775,0.005597853042272401,0.005047402500000006,0.074728438984375,0.002482075000000007,0.019521709999999998,5,STANDING
0.0006062141996875,0.003758078696049604,0.008516866,-0.006600863,1.449065114160465e-05,0.006107606,0.0032186290532812503,0.0029899910450000003,0.015117729,0.0011323722402343751,0.0038260394316993536,0.01228363,-0.008803018,1.5920844623371728e-05,0.005026325,0.0031955214144531252,0.00241678115,0.021086648,-0.00119966587003125,0.004029170335572207,0.007148675,-0.01031546,1.7673411792772883e-05,0.00615603175,0.0034118934544062497,0.0031206095,0.017464135,1.0209475546875,0.0016794778709123422,1.026011,1.016118,1.0423367300683046,0.002510500000000304,1.0209475546875,0.0011535000000000295,0.00989299999999993,-0.13461917109375002,0.002958131066604605,-0.1274467,-0.1418027,0.018131071765375546,0.003972300000000012,0.13461917109375002,0.002057650000000022,0.014356000000000008,0.07539410390625,0.003993921496146956,0.08494946,0.06542775,0.005700222312743806,0.005826839999999986,0.07539410390625,0.0029490950000000057,0.019521709999999998,5,STANDING
0.017663580413281248,0.021181263219968268,0.06638039,-0.06081438,0.0007606479846100336,0.02110283325,0.02238459141953125,0.010769806500000001,0.12719477,0.1044727909375,0.046330458461787995,0.238885,0.04532233,0.013061075427550046,0.0611867525,0.1044727909375,0.03066621500000001,0.19356267,-0.11545152656249999,0.044824087907911286,-0.05209834,-0.2249153,0.015338253842387801,0.063035635,0.11545152656249999,0.030241965000000003,0.17281696000000002,1.0081494203124999,0.003434782911270542,1.015949,0.9974581,1.0163770514100774,0.0038487499999999564,1.0081494203124999,0.001995499999999928,0.018490899999999977,-0.25099851093750003,0.005722148833428889,-0.2350935,-0.270837,0.0630329954801142,0.005852449999999981,0.25099851093750003,0.003004349999999989,0.035743499999999984,-0.011182735817968751,0.004765257839388988,0.009428611,-0.02290218,0.0001477612626503394,0.00450232075,0.01147118713046875,0.0024247265,0.032330791,5,STANDING
0.012235944784375,0.011451895023921205,0.03352284,-0.008866269,0.00028086424440518503,0.01844493775,0.013498027278125,0.0084737145,0.042389108999999994,0.0460711500390625,0.026970085620713322,0.09940157,0.005060319,0.002849936384310416,0.041309534999999994,0.0460711500390625,0.022656495,0.094341251,-0.05013406490625,0.03400718044535398,-0.005976633,-0.1138757,0.003669912785866954,0.0565730275,0.05013406490625,0.03287589,0.107899067,1.0093213359375,0.002304094196606004,1.015505,1.001638,1.0187348680287267,0.002789999999999848,1.0093213359375,0.00141099999999994,0.013867000000000074,-0.2478147859375,0.00460161036134251,-0.2365285,-0.257226,0.06143334294716656,0.006971524999999978,0.2478147859375,0.003131549999999983,0.020697500000000008,-0.0135884849609375,0.00522145784381054,-0.00435058,-0.02615563,0.00021191054554831523,0.0066325720000000015,0.0135884849609375,0.0025658224999999995,0.02180505,5,STANDING
0.01471535150625,0.01113781256301013,0.03335466,-0.008866269,0.00034059243864124043,0.018393334750000004,0.0158339734625,0.007902254999999999,0.042220929000000004,0.012675679117734377,0.015591159293790995,0.04627664,-0.0180936,0.0004037570892201326,0.023023544675,0.015936171076015623,0.01197024535,0.06437024,-0.01124142163046875,0.014549422448920239,0.01828532,-0.05081937,0.0003380552538711149,0.019639987699999997,0.01476769163671875,0.008955684,0.06910469,1.009790109375,0.002360561715574725,1.015505,1.004966,1.0196816372431874,0.003241749999999932,1.009790109375,0.0015899999999999803,0.010539000000000076,-0.24547545703125,0.004853871665222573,-0.2347644,-0.257226,0.06028176007484352,0.007280124999999998,0.24547545703125,0.003691449999999985,0.022461599999999998,-0.015921801078125002,0.005263374986848732,-0.00435058,-0.02887809,0.00028120686582356735,0.007608127500000001,0.015921801078125002,0.0037089899999999997,0.02452751,5,STANDING
0.015418441789062499,0.011063261662419667,0.03335466,-0.01477824,0.00036012410581387364,0.014568094750000003,0.0171014656640625,0.0067447850000000005,0.0481329,-0.001545000670546875,0.009809865251083315,0.02448806,-0.02052372,9.862048331640219e-05,0.006212953675,0.0073306268674218755,0.0031185655999999996,0.04501178,0.0036163485570312503,0.010880611013433177,0.02390865,-0.02788981,0.00013146567291158533,0.0102377173,0.009622617949218749,0.0052246924,0.051798460000000004,1.0102562968750002,0.0021634375437287858,1.015463,1.00334,1.0206224658375938,0.0027839999999998977,1.0102562968750002,0.001403500000000113,0.012123000000000106,-0.24463933359375,0.0033976519302002283,-0.2347644,-0.2537182,0.05985994757983289,0.003370749999999978,0.24463933359375,0.0016496499999999886,0.018953799999999993,-0.0162415676015625,0.003970323326397135,-0.00423016,-0.02887809,0.0002795519854722579,0.004803075,0.0162415676015625,0.002397660000000001,0.02464793,5,STANDING
0.00312758665234375,0.009249131036633827,0.02461655,-0.0154806,9.53282232007419e-05,0.014846586500000002,0.008098615202343751,0.007581787499999999,0.04009715,-0.0060732518828125,0.003758975700804433,0.002966135,-0.02052372,5.101428675132376e-05,0.004796966749999999,0.0061641065578125,0.0024124069999999992,0.023489854999999997,0.00951085225,0.004435488782711016,0.02390865,0.001359982,0.00011012987126288531,0.0053333569999999995,0.00951085225,0.0027065495,0.022548668,1.010144,0.0022085888488184158,1.014069,1.002174,1.0203957786007032,0.0028717499999999507,1.010144,0.0014260000000000383,0.011895000000000211,-0.24523304609375002,0.002857038063791501,-0.2382996,-0.2517866,0.06014740956291727,0.0031933749999999983,0.24523304609375002,0.0017634000000000122,0.013487000000000027,-0.016717997835937498,0.003560294653090207,-0.00423016,-0.02538793,0.0002921671496592337,0.004951970000000002,0.016717997835937498,0.002415219999999999,0.02115777,5,STANDING
-0.00184305352109375,0.005248249416039505,0.01197573,-0.0154806,3.094096821457507e-05,0.007593546,0.00467025093203125,0.0031267400000000002,0.02745633,-0.00453180617703125,0.0038752191543948416,0.003829208,-0.01399862,3.555459072076727e-05,0.0061166325,0.0050608261004687505,0.003008996,0.017827828,0.00637998093246875,0.004574604754071023,0.01809767,-0.003725647,6.163116535463402e-05,0.006734155000000001,0.00664932480903125,0.0033731115000000004,0.021823317,1.0096904453125,0.0021197893977372645,1.013794,1.002174,1.0194792888624453,0.0025722500000000537,1.0096904453125,0.0013579999999999703,0.011620000000000186,-0.24501904687499998,0.003001297733818068,-0.2382996,-0.2514682,0.060043341119620466,0.003565325000000008,0.24501904687499998,0.001810100000000009,0.013168599999999975,-0.017784075625,0.003353543624990621,-0.01012489,-0.02557545,0.0003275196006804344,0.004906045000000001,0.017784075625,0.00249845,0.01545056,5,STANDING
-0.002207139922734375,0.003881650788804769,0.006801737,-0.009453597,1.9938679484756585e-05,0.0051763327,0.0039212180602343745,0.0024369373,0.016255334,-0.0019717160275781248,0.0033543817896148176,0.005208994,-0.01017049,1.5139541283907968e-05,0.005082810174999999,0.003084673090546875,0.0025796160000000003,0.015379484,0.0032931694738750003,0.0030818251745107143,0.01042214,-0.004894007,2.0342611589910134e-05,0.0041477367499999996,0.0037462569645,0.002130944,0.015316146999999999,1.0097765625,0.0020538148565154906,1.015896,1.004961,1.0196529243297812,0.0026289999999999925,1.0097765625,0.0012965000000000337,0.010934999999999917,-0.24357020546875002,0.0026354269289549106,-0.2373351,-0.2505096,0.05933339046718695,0.0037557750000000167,0.24357020546875002,0.0018405499999999964,0.013174500000000006,-0.0176257101015625,0.003581075280965856,-0.006262776,-0.02557545,0.000323489756752267,0.004934179999999998,0.0176257101015625,0.0025568450000000003,0.019312674,5,STANDING
-0.0015511572224999998,0.0037878536768266593,0.007876131,-0.0117727,1.6753924205963157e-05,0.00585058875,0.00335388083859375,0.0029277749999999996,0.019648831,-0.002354368136484375,0.0030337037885521385,0.005208994,-0.01086651,1.4746407998768507e-05,0.004188134275,0.0031191507978906245,0.0021036085,0.016075503999999997,0.003652468692578125,0.0033020025039671146,0.01249668,-0.005267949,2.4243748086468455e-05,0.00436342625,0.004108361957421875,0.002177685,0.017764629,1.0097259765625002,0.0020955076259437004,1.015896,1.003571,1.0195509388973047,0.0026012499999998884,1.0097259765625002,0.0012990000000001611,0.01232499999999992,-0.24395393671875,0.00309745261318351,-0.2368059,-0.2523957,0.0595231174532668,0.0041488500000000095,0.24395393671875,0.0021307500000000007,0.015589799999999987,-0.01676875578125,0.003536840155757102,-0.004097803,-0.02508287,0.0002937004087385812,0.0047912200000000005,0.01676875578125,0.002550114999999997,0.020985067,5,STANDING
-0.0004938278339843749,0.003356447735049928,0.01130631,-0.0117727,1.1509607327739488e-05,0.0032314005,0.0024554612082031252,0.0016875122999999998,0.02307901,-0.0008034543046875,0.0038437524049990427,0.007734328,-0.01086651,1.54199713706568e-05,0.00532899125,0.00329191718125,0.0027771755000000004,0.018600838,0.001179929425390625,0.0046616697244277,0.01249668,-0.008749417,2.3123398068548483e-05,0.0074280974999999996,0.004032573490234375,0.0037784155,0.021246097,1.009357921875,0.0020939637301709657,1.014231,1.003019,1.018807799135922,0.0021759999999999557,1.009357921875,0.0011385000000001533,0.011212,-0.24623629218749998,0.0035258271987225163,-0.2368059,-0.2544247,0.06064474304768312,0.004406275000000015,0.24623629218749998,0.0022261000000000086,0.01761879999999999,-0.0176614638046875,0.003945313095107007,-0.004097803,-0.03008089,0.0003274927991427095,0.004897362499999999,0.0176614638046875,0.00256143,0.025983087,5,STANDING
0.00046817678570312506,0.003134685834596496,0.0113767,-0.006184605,1.0045444784291239e-05,0.00327986475,0.0022726118528906248,0.0016426675699999999,0.017561305,0.002322596571171875,0.003369467583110329,0.009313939,-0.00460703,1.674776662605071e-05,0.0046884374175,0.0035343194977343747,0.0022767484500000002,0.013920969,-0.003220978975,0.004119346448139689,0.005568408,-0.01306043,2.7343720717193122e-05,0.00500692195,0.0042544287796875,0.0024180645,0.018628838,1.009828625,0.0018796226183731616,1.014014,1.003019,1.019757384850578,0.0018100000000000893,1.009828625,0.0009774999999999645,0.010994999999999866,-0.2469195125,0.003377316483471936,-0.2373135,-0.2544247,0.06098065191986719,0.004024949999999999,0.2469195125,0.0020273999999999848,0.017111199999999993,-0.018290511953125,0.004336613458305314,-0.01015918,-0.03008089,0.00035334904379416326,0.00662772,0.018290511953125,0.0033079850000000003,0.01992171,5,STANDING
0.002799266545390625,0.004946545866770994,0.01334825,-0.01266184,3.2304209204212365e-05,0.007208410175000001,0.004380418507890625,0.003126007,0.02601009,0.001233596877875,0.003778824843632793,0.009313939,-0.01110292,1.580127845595935e-05,0.005564244,0.0032695610133749997,0.002798272,0.020416859000000002,-0.0024239185365625,0.005044194158640115,0.01226595,-0.01306043,3.131927578195035e-05,0.0073132128499999996,0.00446771670875,0.0036606265,0.02532638,1.0106915156249998,0.0018852491835645664,1.015918,1.005542,1.0215008939208436,0.0025804999999998746,1.0106915156249998,0.001231500000000052,0.010376000000000163,-0.24391155546875,0.004111261417527633,-0.2331843,-0.2538186,0.05950974936162835,0.005727750000000031,0.24391155546875,0.003024349999999995,0.020634299999999994,-0.016629518179687497,0.004428951130668339,-0.002676076,-0.02704317,0.0002961564830064054,0.004743665000000001,0.016629518179687497,0.0027186999999999992,0.024367094,5,STANDING
0.00031161400359374985,0.007295795947193455,0.01334825,-0.017479,5.3325741790320163e-05,0.0099312015,0.00581456634421875,0.005337667,0.03082725,-0.00043564620220312505,0.003963506305477256,0.0104444,-0.01110292,1.5899169847051972e-05,0.005272103,0.0031518350667343754,0.0026368955,0.021547320000000002,0.0009825199477343752,0.004569018470668006,0.01226595,-0.01057889,2.184127523300136e-05,0.0058695735,0.003733996487734375,0.0029670955,0.022844839999999998,1.010819765625,0.0020040358907261052,1.015918,1.00465,1.0217606147380311,0.0027494999999999603,1.010819765625,0.0013450000000000406,0.011268000000000056,-0.24218985625,0.003053937499277315,-0.2331843,-0.2497032,0.05866525300464516,0.004251599999999994,0.24218985625,0.002059499999999992,0.016518899999999975,-0.0159467070234375,0.003940362393022354,-0.002676076,-0.02774195,0.00026982392067969577,0.0044768249999999985,0.0159467070234375,0.0020022799999999995,0.025065874000000002,5,STANDING
-0.00294422857890625,0.006607590123553441,0.01072059,-0.017479,5.232872916572929e-05,0.007867236175,0.00576437914921875,0.004123296,0.028199590000000004,-0.00016514982124999999,0.003927423905870541,0.0104444,-0.009841199,1.545193299986232e-05,0.004926309,0.0030553568271875,0.002518812,0.020285599,0.0013644163672656248,0.003728104792133192,0.01161285,-0.01132028,1.5760397364388794e-05,0.003839200325,0.0030612746135156247,0.0019498308,0.02293313,1.0104279218749999,0.001663144323494343,1.016228,1.00465,1.020967351353672,0.0019612499999999145,1.0104279218749999,0.0009375000000000355,0.011577999999999866,-0.24257717343750002,0.0026973704050914445,-0.2363509,-0.2507422,0.058850960880029224,0.0029730749999999917,0.24257717343750002,0.0015393000000000212,0.014391300000000024,-0.014805754078125,0.003977911517916998,-0.005414703,-0.02774195,0.00023503413386629176,0.00542603,0.014805754078125,0.002710994999999999,0.022327247,5,STANDING
-0.0194046051953125,0.024803471066742404,0.07282671,-0.06115461,0.0009917508797446764,0.008283027499999998,0.0292349721171875,0.0040993049999999975,0.13398132000000001,-0.0941628840625,0.023198747076599056,0.03468009,-0.164254,0.00940483060089183,0.024539262500000006,0.09489967140625,0.011391915000000002,0.19893409,0.063357475046875,0.042119094478895044,0.09443355,-0.1179507,0.005788187764037475,0.024240624999999995,0.0729541811875,0.009753569999999996,0.21238425,0.9264601265625,0.0057159389539181964,0.9403026,0.9024631,0.8583610380683283,0.005544349999999976,0.9264601265625,0.002709549999999894,0.037839500000000026,0.16874141171875,0.007473026854844163,0.1871752,0.1398434,0.028529510159209924,0.004935174999999986,0.16874141171875,0.0026522500000000088,0.04733180000000001,0.37832932421875004,0.008147775441720904,0.4067535,0.3659201,0.14319946380846477,0.006501075000000023,0.37832932421875004,0.0030725000000000058,0.040833399999999964,4,SITTING
-0.021383468203125,0.006700991171062047,-0.007324795,-0.03725248,0.0005021559950687094,0.01044608,0.021383468203125,0.005335130000000001,0.029927684999999996,-0.07442173312499999,0.020785345762675066,-0.03048957,-0.1199051,0.005970624959802676,0.0386841475,0.07442173312499999,0.018079699999999997,0.08941553,0.07113201546875,0.01719301136723831,0.09443355,0.03342644,0.005355363264520475,0.027764407500000005,0.07113201546875,0.010424220000000005,0.06100711,0.92869599921875,0.0026387286135293978,0.9358822,0.9230763,0.8624832218536084,0.0037681249999999,0.92869599921875,0.001867400000000019,0.012805900000000037,0.16787158515625,0.0029048895412812667,0.1759646,0.1598397,0.02818930748611914,0.004075749999999989,0.16787158515625,0.002099599999999993,0.016124899999999998,0.3749473578125,0.003484213304737202,0.3844061,0.3659201,0.1405976608729278,0.004132850000000021,0.3749473578125,0.002042499999999975,0.018485999999999947,4,SITTING
-0.01210499642734375,0.005470382058091916,-0.0005715414,-0.02260026,0.00017645601836749892,0.008566538749999998,0.01210499642734375,0.004419051500000001,0.0220287186,-0.041721848828125,0.018602533286077836,-0.01496626,-0.08078861,0.0020867669142965494,0.027068100000000005,0.041721848828125,0.013756795000000002,0.06582235,0.042792488906249995,0.018273476667267356,0.08379378,0.01659753,0.0021651170563006935,0.026999987500000006,0.042792488906249995,0.013629520000000001,0.06719625,0.9281175492187501,0.00219430887297103,0.9346583,0.9214067,0.8614070001592489,0.003134999999999999,0.9281175492187501,0.0015595500000000206,0.01325160000000003,0.16851103515625,0.0029597495431832425,0.1744584,0.1598397,0.028404729086789298,0.004660974999999984,0.16851103515625,0.0023987999999999787,0.014618700000000012,0.37512042343749996,0.003953856084659722,0.3829644,0.3638358,0.1407309650578675,0.004929724999999996,0.37512042343749996,0.0026411000000000073,0.019128599999999996,4,SITTING
-0.010372026851562502,0.23513206057032113,0.5710075,-0.7163907,0.0553946648490547,0.011577376425,0.134158698565625,0.005859386499999999,1.2873982000000002,0.043195859809375,0.38353093421768547,1.134195,-0.8132629,0.14896185980656174,0.030120917499999997,0.2185262698875,0.014299270000000003,1.9474579,-0.004316794205468747,0.21004881594761637,0.5143666,-0.5680432,0.044139139793207986,0.028982107,0.12397283682578125,0.014417638,1.0824098,0.91742662734375,0.06048355705394328,1.069117,0.6960658,0.8453298772332255,0.006262125000000007,0.91742662734375,0.0023305999999999605,0.37305120000000014,0.19544655546875,0.04816161226373787,0.3354184,0.1384194,0.04051889694044179,0.028628474999999987,0.19544655546875,0.0038261500000000004,0.196999,0.36624726953125,0.07588590968207282,0.5639844,0.1615828,0.1398957337273718,0.012130299999999983,0.36624726953125,0.005770950000000052,0.4024016,4,SITTING
0.024599318202343755,0.24405959924397672,0.5710075,-0.7163907,0.06017021443915069,0.1023532235,0.16118667819921875,0.035077933,1.2873982000000002,0.042226722028281254,0.3916753571952452,1.134195,-0.8132629,0.15519268148727666,0.26816745000000003,0.2554985111060938,0.117727145,1.9474579,-0.06043341967421874,0.2388383611629962,0.5143666,-0.5680432,0.06069596097654606,0.31887713500000003,0.18493572041953124,0.11972379999999999,1.0824098,0.84332482265625,0.0918104987689046,1.069117,0.6960658,0.7196259241923906,0.15889352499999998,0.84332482265625,0.07256889999999999,0.37305120000000014,0.31423705468749996,0.10670028065712844,0.4702471,0.1384194,0.11012987643098483,0.22256755,0.31423705468749996,0.11047989999999999,0.33182769999999995,0.41913882968750005,0.1005589174764642,0.5639844,0.1615828,0.18578945443584546,0.11341029999999996,0.41913882968750005,0.0660599,0.4024016,4,SITTING
0.023801117290625,0.06611433145768646,0.35372,-0.02735073,0.004937598008378919,0.05218681,0.038329065084375,0.0180975885,0.38107072999999997,-0.037183543945156244,0.08053012375802142,0.2714462,-0.1983637,0.007867716772803611,0.03842471749999999,0.07318664738265626,0.01780938499999999,0.4698099,-0.011475301718749997,0.1369591528909225,0.1113087,-0.3611059,0.01888949211013543,0.0527239075,0.10560420734374999,0.016273475000000003,0.47241459999999996,0.778603784375,0.02911902090930653,0.874014,0.705209,0.6070717704217881,0.01242215000000002,0.778603784375,0.006499950000000032,0.16880499999999998,0.42112247187499996,0.03322386024098949,0.4702471,0.3064895,0.17844796120742296,0.014471949999999956,0.42112247187499996,0.006131849999999994,0.16375759999999995,0.4677963890625,0.028421638305100822,0.5582344,0.3965745,0.21964125114385985,0.02918917500000001,0.4677963890625,0.007678600000000008,0.16165990000000002,4,SITTING
-0.0154771018828125,0.004974388068455033,0.006222564,-0.02735073,0.000264285219346546,0.0048521725000000016,0.0156079595703125,0.002276545000000002,0.033573294000000004,-0.0353492692265625,0.018624326605833495,-0.002610486,-0.1373512,0.001596436376372756,0.019123349999999994,0.0353492692265625,0.008768155,0.134740714,0.0517038584375,0.012929602316971208,0.07744526,0.02851897,0.0028404635934000675,0.019437302500000003,0.0517038584375,0.010301600000000005,0.04892629,0.778331659375,0.0034210828397790707,0.7856816,0.7676861,0.6058118757932377,0.003518000000000021,0.778331659375,0.0018219500000000166,0.017995499999999942,0.43380584296875,0.0038438458237381613,0.4489616,0.4235446,0.18820228454454446,0.003040374999999984,0.43380584296875,0.0014753999999999878,0.025417000000000023,0.45340585234375,0.003931088497973654,0.4662367,0.4444582,0.20559232039634132,0.005104525000000026,0.45340585234375,0.002204600000000001,0.02177849999999998,4,SITTING
-0.014317010546875002,0.0033090641594463064,-0.007281921,-0.02059122,0.00021592669661066208,0.005689732500000001,0.014317010546875002,0.002928105000000001,0.013309299,-0.017571495132812504,0.009214747487537405,0.00757058,-0.04030338,0.0003936690124615303,0.0139760525,0.0176897854453125,0.0059954480000000004,0.04787396,0.031101473609375003,0.013265437042582508,0.05846808,0.008730662,0.0011432734806053695,0.023128262499999996,0.031101473609375003,0.01170832,0.049737418,0.77835975546875,0.0022486282926281053,0.7851748,0.7706567,0.6058489652625707,0.0029616249999999678,0.77835975546875,0.0015368499999999785,0.014518099999999978,0.43377549218750006,0.002295245137051314,0.4409072,0.4267952,0.18816644577274702,0.00248777499999997,0.43377549218750006,0.00131929999999994,0.014112000000000013,0.45222259765625,0.003395680727512177,0.4613826,0.4446757,0.20451680847856976,0.004082224999999995,0.45222259765625,0.00201345,0.01670689999999997,4,SITTING
-0.008026776628125,0.004527771067406271,0.002578788,-0.01810745,8.492985387665506e-05,0.0070540515,0.0080849254484375,0.0034612604999999996,0.020686238,-0.007522930771484375,0.006393687901254123,0.01453529,-0.01935364,9.747373237118986e-05,0.0082951415,0.008713343154296876,0.0037847209999999996,0.03388893,0.01392440072265625,0.008608671886280346,0.0346931,-0.007972494,0.0002679981671307435,0.01104768075,0.01422756026484375,0.005700293500000001,0.042665594,0.7780774515625,0.0020426713823058517,0.7830879,0.7706567,0.6054086931363707,0.002494774999999949,0.7780774515625,0.0011063999999999519,0.012431199999999976,0.43399897734375004,0.0022029581839048983,0.438958,0.4267952,0.18835996536018088,0.0026681249999999657,0.43399897734375004,0.0013917499999999972,0.01216280000000003,0.451276503125,0.003388679666019862,0.4610676,0.4442089,0.20366196542260703,0.004434075000000037,0.451276503125,0.00221360000000001,0.016858700000000004,4,SITTING
-0.0033459591514843744,0.0024759554547461628,0.003037348,-0.009441856,1.7325798057289315e-05,0.0034562727500000003,0.003624841101484375,0.001674801,0.012479204,-0.00012898187964062506,0.007403997052764534,0.02285444,-0.01745321,5.483580868262153e-05,0.010763142,0.005921254394578125,0.0046650933,0.04030765,0.0035190524142968754,0.006560806803761194,0.01891969,-0.009819652,5.542791581084784e-05,0.009799828,0.005785788502890625,0.004534042,0.028739342,0.778354190625,0.0022543215265850196,0.783101,0.7731562,0.6058403280290441,0.002234950000000069,0.778354190625,0.0011219500000000382,0.009944800000000087,0.43409094609375004,0.0023577519826859946,0.4430884,0.4290432,0.18844050847497884,0.0025421999999999945,0.43409094609375004,0.001388000000000028,0.01404519999999998,0.450661371875,0.002968846079812025,0.459491,0.4438996,0.20310448614730264,0.0036643749999999975,0.450661371875,0.0018292999999999782,0.015591399999999977,4,SITTING
-0.0005436304092968751,0.003132009232618534,0.006621113,-0.00843112,1.0105015855120028e-05,0.00471560075,0.002637991012421875,0.002428137,0.015052233,0.0009225426366718751,0.006406947895380611,0.02285444,-0.01509844,4.190006625059953e-05,0.006906588,0.004967911986078125,0.00382776945,0.03795288,-0.0006388664337500001,0.00410276427253379,0.01058067,-0.01167465,1.7240824996152164e-05,0.005886738000000001,0.00336386972328125,0.0030045558,0.022255320000000002,0.77801465625,0.002530204940740663,0.7857266,0.7729414,0.6053132072768478,0.0030814999999999593,0.77801465625,0.0015399500000000121,0.012785200000000052,0.43491191953124997,0.002620884775911162,0.4430884,0.4296449,0.18915524678736506,0.0034389499999999407,0.43491191953124997,0.001825300000000002,0.013443499999999997,0.45093948906250003,0.0036050224562241434,0.459491,0.4397985,0.20335941898285845,0.003933925000000005,0.45093948906250003,0.002127999999999991,0.0196925,4,SITTING
-0.20355172109375,0.041671057214254785,-0.1211232,-0.2665163,0.043169780169581486,0.07203622499999998,0.20355172109375,0.034094550000000015,0.1453931,-0.02655661895859375,0.022611586137159738,0.02111416,-0.08024847,0.0012165378381501354,0.025017405000000003,0.02729044637734375,0.00923421,0.10136263000000001,-0.30118194609375,0.07889123727437876,-0.1656214,-0.4476391,0.09693439197150086,0.12514787500000002,0.30118194609375,0.0641561,0.28201770000000004,0.9574623164062501,0.004679266496267363,0.968194,0.9450406,0.916755982872965,0.0066093999999999875,0.9574623164062501,0.0032060999999999895,0.02315339999999999,0.14459704687499997,0.01000714768831616,0.1581309,0.1116331,0.021008448969826718,0.015866850000000016,0.14459704687499997,0.007526149999999995,0.04649779999999999,0.31429129140625,0.00671482983178636,0.3334356,0.2984177,0.0988241047934782,0.0065560500000000355,0.31429129140625,0.0034080999999999695,0.03501789999999999,4,SITTING
-0.12547719218750003,0.04936905237061702,-0.04364947,-0.2139845,0.01818182909123154,0.08926812750000002,0.12547719218750003,0.0433633,0.17033503,-0.015005918880703125,0.0106105453764922,0.02111416,-0.03463405,0.00033776127464084246,0.015040453999999998,0.015876812084921872,0.00791809,0.05574821,-0.1650439071875,0.08100509024859077,-0.02695519,-0.3289714,0.033801315945898455,0.127554875,0.1650439071875,0.06116715,0.30201621,0.9546895507812501,0.0028409282961570238,0.9629479,0.9474999,0.9114402092444889,0.0035190999999999972,0.9546895507812501,0.0017548000000000008,0.015448000000000017,0.1558858671875,0.005016263305833795,0.1687341,0.1418323,0.02432556648635234,0.005491000000000024,0.1558858671875,0.002657050000000008,0.026901800000000003,0.3136787625,0.004594398647266037,0.3225754,0.3026267,0.09841547454246141,0.00647120000000001,0.3136787625,0.003234850000000039,0.019948699999999986,4,SITTING
-0.0533116872890625,0.034355373913707486,-0.006675429,-0.1224224,0.004022427718357441,0.057849785,0.0533116872890625,0.029855979999999997,0.115746971,-0.009269405699453125,0.010634133622004516,0.0218543,-0.03331451,0.00019900667991170097,0.01215492375,0.011090029705234376,0.0066351503999999995,0.05516881,-0.05615196717992187,0.0499425689059013,0.005725513,-0.1631935,0.005647303607095722,0.08971769,0.05648044006851562,0.027841652000000005,0.16891901299999998,0.95520513671875,0.0029622228058838844,0.9618085,0.9459184,0.9124256279778378,0.003858549999999905,0.95520513671875,0.0019546500000000577,0.015890099999999907,0.1572661015625,0.0037795082527977515,0.1687341,0.1479362,0.024746911383299534,0.004185149999999999,0.1572661015625,0.0021982000000000113,0.020797900000000008,0.31226260781250004,0.004545849402384302,0.3236515,0.3019302,0.09752860098465235,0.0064274000000000275,0.31226260781250004,0.003203750000000005,0.0217213,4,SITTING
-0.0104680370771875,0.01643537118711886,0.01265449,-0.0509704,0.000379701226307749,0.02592601825,0.015319549743125,0.0135191635,0.06362489,-0.0009874752421875003,0.006965726522486654,0.0218543,-0.02235039,4.949645334000727e-05,0.01071847725,0.0058729744,0.004603262,0.044204690000000005,-0.00520330691359375,0.014024869540988805,0.01267073,-0.0365987,0.00022377136847880804,0.024334523999999996,0.01124980440359375,0.009116912,0.049269429999999996,0.9557314078125,0.0030953645612383333,0.9630642,0.9459184,0.9134321051610301,0.003966950000000025,0.9557314078125,0.001962699999999984,0.01714579999999999,0.15579642890625,0.0031395232743242725,0.1664388,0.1465973,0.024282383866330234,0.00398657500000002,0.15579642890625,0.001899999999999999,0.019841499999999984,0.31257656718750004,0.004412894637453639,0.3236515,0.2983559,0.09772358399380297,0.005391800000000002,0.31257656718750004,0.002834949999999975,0.025295599999999974,4,SITTING
0.006806985868125,0.006643990619464691,0.01535615,-0.01793096,9.047766796038828e-05,0.00543432375,0.0087467809228125,0.0027692340000000006,0.03328711,0.0007701287843749998,0.0060223310471835675,0.01537165,-0.0145592,3.686156958639403e-05,0.009084392,0.0051508514328125,0.0048150682,0.029930850000000002,0.013040334258515624,0.011043384888651458,0.04239926,-0.004334266,0.0002920066673727116,0.013828747499999999,0.013530158952265624,0.0055643355,0.046733526,0.95468453671875,0.002940830239725869,0.9630642,0.9476106,0.9114312131323932,0.0039392000000000316,0.95468453671875,0.0019369999999999665,0.015453600000000067,0.16009056328125,0.004866886028895797,0.170955,0.1465973,0.02565267503132617,0.008036124999999977,0.16009056328125,0.004029150000000009,0.024357699999999982,0.3122593546875,0.0041190800251288545,0.3223294,0.2983559,0.09752287141010733,0.004261349999999997,0.3122593546875,0.0021868999999999916,0.02397349999999998,4,SITTING
0.0104993994453125,0.002625233440810826,0.01723944,0.003754326,0.00011712923933097988,0.0036641072499999996,0.0104993994453125,0.0017128324999999998,0.013485114000000001,0.0004412253429687499,0.005361264952779313,0.0144262,-0.0145592,2.8937841697177662e-05,0.00838874675,0.00441228116328125,0.0038843315,0.0289854,0.018855828164062498,0.0084834961654905,0.04239926,0.002208639,0.0004275119629425446,0.011814080000000001,0.018855828164062498,0.005929329999999998,0.040190621,0.9550955890624999,0.0027922459669098157,0.9603653,0.9476106,0.9122153808841835,0.004266824999999974,0.9550955890624999,0.002195349999999985,0.012754700000000008,0.16055923593750002,0.00424904925058121,0.170955,0.1521729,0.025797322664367656,0.006818975000000005,0.16055923593750002,0.003376649999999995,0.018782099999999996,0.31091025546875,0.0049936293235076125,0.3220539,0.2948953,0.09669012328946397,0.006082024999999991,0.31091025546875,0.003106850000000022,0.027158599999999977,4,SITTING
0.0074051837425,0.0039900912216765646,0.01723944,-0.001639036,7.075757421748668e-05,0.005282461749999999,0.0074821559825000005,0.0030021425,0.018878476,0.0020460597281249998,0.0060428422142752135,0.01727508,-0.01278186,4.0702302437681525e-05,0.008176524499999999,0.0052189528484375,0.0040820815,0.030056940000000004,0.009096424619140625,0.009641415176669216,0.02950626,-0.01015704,0.0001757018274606151,0.015231581750000002,0.010817171722265626,0.00834883655,0.0396633,0.95529626171875,0.0026812086367182784,0.9616283,0.9480277,0.912598136533572,0.004482325000000009,0.95529626171875,0.0022176500000000154,0.013600599999999963,0.15900642421875,0.0034493089437357344,0.1661824,0.1521729,0.025294940675022422,0.004479275000000005,0.15900642421875,0.002244999999999997,0.014009500000000008,0.30991242109375,0.004668477206499132,0.3220539,0.2948953,0.09606750342761741,0.00600719999999999,0.30991242109375,0.0030977000000000365,0.027158599999999977,4,SITTING
0.0031257466708593754,0.002962283650881006,0.009299922,-0.004013136,1.8545416678665363e-05,0.00472007815,0.003537284976015625,0.002350449,0.013313058,0.0019483860953125,0.006424399554629953,0.01727508,-0.01278186,4.506911801393662e-05,0.0093343595,0.005399430971875,0.004802300000000001,0.030056940000000004,0.0027879302339843754,0.007606350797629274,0.02222883,-0.01624187,6.562912744615966e-05,0.012066432500000002,0.006505627430859375,0.0060180975,0.0384707,0.954340046875,0.002670026177040968,0.9616283,0.9465714,0.9107720541091633,0.003335575000000035,0.954340046875,0.0016626499999999877,0.01505690000000004,0.16265946640625,0.0036797072017578144,0.1715425,0.1532105,0.02647164225665664,0.004758249999999964,0.16265946640625,0.002276849999999997,0.018331999999999987,0.31006222578125,0.003804459978992711,0.3169765,0.3013442,0.09615305777215462,0.005777100000000035,0.31006222578125,0.0028898000000000534,0.015632299999999988,4,SITTING
0.0013780995674218751,0.0027436135490009486,0.009558672,-0.004113235,9.426573723989938e-06,0.0036690717999999997,0.002441298526328125,0.001849429,0.013671907,-8.427481093750003e-05,0.005774170411465373,0.01659799,-0.01417126,3.3348146184400746e-05,0.007004505750000001,0.0045708360078125,0.003448349,0.030769249999999998,0.002573990215625,0.007756330136714309,0.02222883,-0.01624187,6.678608281983586e-05,0.011956459749999999,0.0065533716640625,0.006023005,0.0384707,0.9545649375,0.002495817544788681,0.9594862,0.9465714,0.9112004490095957,0.003087299999999904,0.9545649375,0.001538600000000001,0.012914800000000004,0.16323698359375,0.003356253269499741,0.1715425,0.1546606,0.026657577248795236,0.004732850000000011,0.16323698359375,0.0023360999999999937,0.016881899999999977,0.30901531875,0.00382148963483871,0.3172375,0.300365,0.09550507100519326,0.005732149999999991,0.30901531875,0.0026750000000000107,0.016872500000000012,4,SITTING
-0.00035746513070312503,0.0031208660332188035,0.009558672,-0.008030536,9.867586116967473e-06,0.00399892275,0.002424215670859375,0.0019550684999999996,0.017589208000000002,0.00013826099531250014,0.005883382548121016,0.01145848,-0.01442998,3.463330631035973e-05,0.0091099325,0.0050510459828125,0.004635427,0.025888460000000002,-0.002254794621875,0.005978598944452239,0.0105475,-0.01704355,4.0827744125441855e-05,0.008068709,0.005230866885937499,0.0037695569999999998,0.02759105,0.9543181421875001,0.002475715774326987,0.9625569,0.9462223,0.9107292456767966,0.0030556999999999945,0.9543181421875001,0.0015393500000000504,0.016334600000000088,0.163290328125,0.0034622791356890524,0.1716219,0.1546606,0.026675718635983593,0.0050606750000000145,0.163290328125,0.002487749999999983,0.016961299999999985,0.3099713609375,0.00441816378456301,0.3199662,0.300365,0.09610176477267313,0.006325175000000016,0.3099713609375,0.002947850000000002,0.019601199999999985,4,SITTING
-0.0010564633002343748,0.0029648114707162628,0.005340396,-0.008030536,9.906221761632837e-06,0.003406304175,0.002453006682578125,0.0017694214500000001,0.013370931999999999,-0.00055644872109375,0.005252161915480723,0.00969577,-0.01442998,2.789483996563301e-05,0.008505404250000001,0.00442769438984375,0.00371334,0.02412575,-0.0006369508757812499,0.007471080283270216,0.01912886,-0.01704355,5.622274701722747e-05,0.0107617415,0.006211179096093749,0.004703654,0.03617241,0.95322853984375,0.0026310475619079673,0.9625569,0.9462223,0.9086515715839207,0.003307825000000042,0.95322853984375,0.001587000000000005,0.016334600000000088,0.16569216874999998,0.0031149128256449136,0.1736632,0.1563018,0.027463597466989842,0.003643675000000013,0.16569216874999998,0.001923649999999999,0.0173614,0.31149775859375,0.0045483409291796895,0.3213905,0.3007139,0.09705154101413821,0.007248124999999994,0.31149775859375,0.0037623499999999976,0.020676600000000045,4,SITTING
-0.000341585719375,0.0031918568936457584,0.007084152,-0.00622553,1.0304631233194883e-05,0.00421691125,0.0026222729364062504,0.0022067034999999997,0.013309682,-0.0008880294301562501,0.0057770472587328646,0.0199989,-0.01281144,3.416287129845654e-05,0.007195096,0.004709630622968751,0.003655188,0.03281034,0.0027149862359375,0.007540733574692343,0.01912886,-0.01654883,6.423381310582244e-05,0.01083459975,0.0066454415828125,0.0054029975,0.03567769,0.9536338359375001,0.002552531514427586,0.9608064,0.9476951,0.9094240084620028,0.003624374999999902,0.9536338359375001,0.0017505000000000437,0.013111299999999937,0.16368083671875,0.004097829011803672,0.1736632,0.1550881,0.02680820851156008,0.006066925000000001,0.16368083671875,0.003088599999999997,0.018575099999999983,0.30961463984374993,0.004239916236962631,0.3213905,0.3007139,0.09587920209527148,0.005829974999999987,0.30961463984374993,0.003064199999999989,0.020676600000000045,4,SITTING
-0.0005536105792734375,0.0033392392753475316,0.007084152,-0.0124939,1.1457003611506978e-05,0.0042960035,0.0026166443140078124,0.002172353,0.019578052,0.0008105339128125,0.007232636020555248,0.0199989,-0.0278183,5.296798902965239e-05,0.0107002475,0.0060055207409375,0.005641131000000001,0.047817200000000004,-0.00242016331015625,0.007669216278116691,0.01479715,-0.02014623,6.467406876835647e-05,0.009577942749999999,0.00667640634296875,0.0044387772499999995,0.03494338,0.95420226171875,0.0025621941204061636,0.9608064,0.9444618,0.9105085211078885,0.0036042499999998645,0.95420226171875,0.0017455999999999583,0.01634459999999993,0.16252903828124998,0.0034077687097397655,0.1724663,0.1550881,0.02642730117220711,0.004797675000000001,0.16252903828124998,0.002414650000000018,0.017378199999999983,0.31060469765625,0.004042974216686447,0.3209431,0.3009798,0.09649162384664726,0.005540349999999972,0.31060469765625,0.002787099999999987,0.01996329999999996,4,SITTING
0.0610835223671875,0.04060437384733852,0.1866745,-0.05807814,0.005379911880317123,0.03101009250000001,0.0656385974765625,0.014538554999999998,0.24475264,-0.0260312073203125,0.05263035706856149,0.1404171,-0.2617657,0.003447578239717371,0.0266798855,0.0336448322046875,0.0115106942,0.40218279999999995,0.202239813203125,0.09291144381657941,0.4137371,0.06730612,0.04953347843651629,0.172336975,0.202239813203125,0.0870993,0.34643098000000005,0.18128593203124999,0.015322322027773798,0.2107747,0.121506,0.0330993627047618,0.01003889999999999,0.18128593203124999,0.004493299999999992,0.0892687,0.7928201828125,0.0187923096335314,0.8956578,0.7400756,0.6289169931762084,0.008600324999999964,0.7928201828125,0.0031316000000000677,0.1555822,0.57080637421875,0.010948664780709608,0.5891572,0.5328179,0.325939790109236,0.006893724999999962,0.57080637421875,0.003885750000000021,0.05633930000000009,6,LAYING
0.0380897633203125,0.018023757959942415,0.07883606,0.007927525,0.001775685920796011,0.031660465,0.0380897633203125,0.01497136,0.070908535,-0.002010827359609375,0.007554976512440436,0.01277749,-0.02369228,6.112109677368027e-05,0.0103722895,0.005924053878359375,0.004130729200000001,0.03646977,0.07578559215625,0.05414412868738244,0.1884581,-0.001689338,0.008675042649789291,0.085469855,0.075836252703125,0.0428546,0.190147438,0.18725597187499998,0.002869883118671209,0.1938947,0.1787438,0.03507303523196563,0.003244175000000016,0.18725597187499998,0.001647700000000002,0.015150899999999995,0.7891893249999999,0.002798037862223727,0.7985047,0.781358,0.6228276197098341,0.0037749500000000547,0.7891893249999999,0.001722599999999963,0.01714669999999996,0.5732804453125,0.00404114901739088,0.5861577,0.5624127,0.32866679986307906,0.004804849999999972,0.5732804453125,0.0023315500000000156,0.023745000000000016,6,LAYING
0.01469722799734375,0.01025309905027038,0.03736635,-0.00313065,0.00032113455094056036,0.014609677249999998,0.01477088819421875,0.007370898,0.040497,-0.0004656852644531251,0.004936345822868777,0.01277749,-0.01357699,2.4584372848482808e-05,0.00661356225,0.003891640756328125,0.0033229310000000003,0.02635448,0.006290100703828126,0.027733752313600812,0.06944356,-0.03255861,0.0008087263842564576,0.04547857499999999,0.02374116343820313,0.02063856,0.10200217,0.18785935625,0.002422874688249671,0.1939644,0.1813707,0.03529700805241938,0.0030002249999999953,0.18785935625,0.0013934499999999905,0.012593700000000013,0.7884116765625,0.002402087250688331,0.7963858,0.7810431,0.621598741763252,0.002883324999999992,0.7884116765625,0.0014493000000000422,0.015342700000000042,0.57445795546875,0.0038063768824461016,0.5861577,0.5624127,0.33001643110630763,0.004324474999999994,0.57445795546875,0.0021773500000000223,0.023745000000000016,6,LAYING
0.002800184973453125,0.005005294108298493,0.0148696,-0.006352334,3.289400499612028e-05,0.00800737125,0.004245290803140625,0.002968809,0.021221934,-0.0008102251571875,0.00576158791069209,0.01326154,-0.01357699,3.385236005797275e-05,0.007708425,0.004752027075625,0.0037269390000000003,0.02683853,-0.019162037233671877,0.007477927268800283,1.542409e-05,-0.03255861,0.0004231030671820941,0.0089929075,0.019162278235078125,0.004421284999999999,0.03257403409,0.1879163921875,0.0025828942292455996,0.1939644,0.1813707,0.03531924179536578,0.003637299999999982,0.1879163921875,0.0017950500000000064,0.012593700000000013,0.7881079390625001,0.002359016907634487,0.7932535,0.7810431,0.6211196885741117,0.0030495499999999565,0.7881079390625001,0.0015963999999999978,0.012210399999999955,0.5739984375,0.0032738238483938776,0.5827673,0.5639359,0.3294849241750317,0.0042949249999999495,0.5739984375,0.0021556000000000353,0.018831399999999943,6,LAYING
-0.001934301066078125,0.0024335318330655953,0.003488633,-0.006674747,9.663597796774566e-06,0.0036204627315,0.0025793329011093748,0.0018493018499999999,0.01016338,0.00282376059765625,0.0054434229980140384,0.01326154,-0.01196211,3.760447784818413e-05,0.0075170486,0.0051726318601562505,0.00372627615,0.02522365,-0.017874464890625,0.004962523187962636,-0.007097394,-0.03113814,0.00034412313151725265,0.006509267500000002,0.017874464890625,0.0032489550000000004,0.024040746,0.187865375,0.002446083354632975,0.1935387,0.1803184,0.035299382447668434,0.0032604999999999995,0.187865375,0.0016866000000000103,0.013220300000000018,0.7882879625,0.0021397724861536103,0.7932501,0.7826088,0.6214024904486939,0.002587024999999854,0.7882879625,0.001303799999999966,0.010641299999999965,0.57381433359375,0.0036607208416742547,0.5851367,0.5639359,0.32927629031472005,0.004545175000000068,0.57381433359375,0.0022880999999999596,0.02120079999999991,6,LAYING
-0.002842671128125,0.002459349807127204,0.003354906,-0.00976919,1.4129180616492075e-05,0.003353744,0.0032103866999999998,0.0017768435000000003,0.013124096,0.00038436764296874995,0.005901648923238049,0.01325396,-0.01090945,3.4977198498118185e-05,0.009550879,0.00502151688671875,0.004812240000000001,0.02416341,-0.01360615003046875,0.004857863392827404,0.005884907,-0.02301264,0.00020872615539499736,0.0056012599999999985,0.013822100124218748,0.002669340000000001,0.028897547000000003,0.18821634921875002,0.0030432210586091002,0.1960576,0.1803184,0.035434655307646015,0.0035626749999999874,0.18821634921875002,0.0018502999999999992,0.01573920000000001,0.788370028125,0.0019828824903698242,0.7928625,0.7810343,0.621531233068784,0.0023956000000000532,0.788370028125,0.0013014999999999555,0.011828200000000066,0.57372632578125,0.004290264044016653,0.5893528,0.5648088,0.3291803032600204,0.0054405499999999885,0.57372632578125,0.002616699999999972,0.02454400000000001,6,LAYING
-0.0021879536083906246,0.0025839026946636403,0.006867838,-0.00976919,1.146369412795958e-05,0.003037751275,0.002762715195421875,0.001536341,0.016637028,0.00131674184140625,0.006231602262403478,0.01812942,-0.01090945,4.056667583370206e-05,0.00895071975,0.00534709861484375,0.005014374,0.02903887,-0.0049507337321093746,0.008860973823741701,0.007038395,-0.02025818,0.00010302662159128128,0.016485956750000003,0.008290021966328125,0.008053922500000001,0.027296575,0.18825134453125,0.003186534352474698,0.1960576,0.1795794,0.0354487227190029,0.003868925000000023,0.18825134453125,0.0019596000000000197,0.0164782,0.78808543203125,0.0025502773369997706,0.7933739,0.7804667,0.6210851520943776,0.0036239750000000015,0.78808543203125,0.001805649999999992,0.012907200000000008,0.5737071078125,0.0038619250566955185,0.5893528,0.5648088,0.329154760019727,0.004731299999999994,0.5737071078125,0.0024573999999999985,0.02454400000000001,6,LAYING
-0.001216268134015625,0.0024099580517787287,0.006867838,-0.006931465,7.287205985154977e-06,0.0029073100750000003,0.002193748137296875,0.00147965355,0.013799303,0.0007381986734375001,0.006585441494124336,0.01812942,-0.01176205,4.3912976953999465e-05,0.009912899749999999,0.005719194696875,0.0048994235,0.02989147,-0.0005624465305468751,0.004690302188991993,0.007038395,-0.0164,2.2315280723787307e-05,0.0074943805,0.004057847249140625,0.0039868835,0.023438395,0.18875645859374998,0.0025298457662513534,0.1956624,0.1795794,0.03563540078045507,0.0025874249999999765,0.18875645859374998,0.0012682499999999847,0.016082999999999986,0.787172728125,0.0026457751278553005,0.7933739,0.7771979,0.6196479040297824,0.0028719999999998747,0.787172728125,0.001493000000000022,0.016175999999999968,0.57457033984375,0.004325849065092232,0.593163,0.565289,0.33014978839829634,0.005089275000000004,0.57457033984375,0.002616200000000013,0.027873999999999954,6,LAYING
-6.42058228125e-05,0.0023472234139428195,0.006451388,-0.004951969,5.513580142644415e-06,0.003196497,0.00185427851328125,0.0014635820000000002,0.011403357,-0.0006471765640624999,0.005232617540909555,0.008965364,-0.01176205,2.779912383450611e-05,0.008661254,0.00456839154015625,0.004143563115,0.020727414,6.153121554687495e-05,0.005186701506614046,0.01352649,-0.0164,2.690565860919909e-05,0.00754595325,0.004280674033046875,0.0038818605,0.02992649,0.18976487109375,0.0025797385180040635,0.1977101,0.1799213,0.03601736135204883,0.002745225000000018,0.18976487109375,0.0013541500000000123,0.017788799999999994,0.78622702109375,0.002926621408901297,0.7934405,0.7771979,0.6181614938108231,0.00357239999999992,0.78622702109375,0.0016089499999999424,0.016242599999999996,0.5757263906250001,0.0045927035753811005,0.593163,0.565289,0.3314819697882214,0.005582299999999929,0.5757263906250001,0.0028236999999999846,0.027873999999999954,6,LAYING
0.0002675760253125001,0.0020391037907632682,0.006576776,-0.004485599,4.229541198827167e-06,0.002600476,0.0015717961565625,0.001224003085,0.011062375,-0.00085653365703125,0.005095241900028043,0.008965364,-0.01038675,2.6695139925428704e-05,0.008517584500000001,0.00448122083625,0.00413079455,0.019352114,0.0008234217108593749,0.004909610750639389,0.01352649,-0.0116685,2.478230103670845e-05,0.007160442750000001,0.0040945473861718745,0.0032569755000000002,0.02519499,0.18959407421875002,0.003079230359253907,0.2015769,0.1799213,0.03595539463847024,0.0033351000000000075,0.18959407421875002,0.0017286999999999997,0.021655599999999997,0.78634419765625,0.003029410368796645,0.7934405,0.7777475,0.6183463745148341,0.004029074999999938,0.78634419765625,0.0019884500000000305,0.015692999999999957,0.5764482390625001,0.003924927539284051,0.5882764,0.5653633,0.3323079773744458,0.004881699999999989,0.5764482390625001,0.00256354999999997,0.02291310000000002,6,LAYING
0.00012063056312500002,0.0026879206962005875,0.007727729,-0.009420592,7.2394694018233035e-06,0.00317326525,0.0020848855835937504,0.00155951235,0.017148321,-0.00017068815546875,0.005674187966747957,0.01182514,-0.01038675,3.222554352840463e-05,0.0097967045,0.00501671817734375,0.004701768,0.022211889999999998,0.000549703445,0.004540008603303958,0.01030801,-0.0116685,2.0913851995518825e-05,0.0059529095,0.0037717211246874995,0.002916264,0.021976509999999998,0.18932324296875,0.002833772124877334,0.2015769,0.1813777,0.03585132059266008,0.0036677499999999974,0.18932324296875,0.001930299999999996,0.0201992,0.7867558640625,0.0023069382566420125,0.7919008,0.7803047,0.6189901116008509,0.003082224999999994,0.7867558640625,0.0013966499999999993,0.011596099999999998,0.57621693671875,0.003934111659750665,0.5882764,0.5653633,0.3320414353960913,0.005112974999999964,0.57621693671875,0.0025212000000000012,0.02291310000000002,6,LAYING
-0.0005309450265468751,0.003048857320274517,0.007727729,-0.009420592,9.577433580606368e-06,0.00446332325,0.002541681793765625,0.0022634405,0.017148321,-0.0007146639103906251,0.005881652237937123,0.01182514,-0.01400701,3.510457755284559e-05,0.00919062525,0.004952405791640625,0.0045491795,0.025832149999999998,-0.0004825680190625,0.0048947478390276,0.01030801,-0.01329425,2.419142830068726e-05,0.007246022249999999,0.004031544823125,0.0033866555000000003,0.02360226,0.189351715625,0.0026359250196929646,0.1967934,0.1833779,0.03586102031084031,0.003860900000000028,0.189351715625,0.0019351499999999966,0.013415499999999997,0.786427321875,0.002324330434297742,0.7915766,0.7808584,0.6184733351034527,0.002600099999999994,0.786427321875,0.0013259000000000465,0.010718200000000011,0.5772977359374999,0.0038593428950432765,0.5862649,0.5682896,0.333287570446145,0.005489199999999972,0.5772977359374999,0.002852599999999983,0.017975300000000027,6,LAYING
-0.00028201489217187503,0.0025197154536282487,0.006024775,-0.005970226,6.428498366659725e-06,0.00311253625,0.0019935027297031246,0.0015288647,0.011995001,-0.0006363455299218749,0.006335554709706932,0.01469792,-0.01400701,4.054418911314125e-05,0.00873384,0.005161441892421874,0.0044672459,0.02870493,-7.991967429687514e-05,0.005390448093481006,0.009544378,-0.01329425,2.906331780285272e-05,0.008502316000000001,0.0045484040711718755,0.0042440675,0.022838628,0.18969334375,0.0029327474345672757,0.1972449,0.1830851,0.035992165670570626,0.004069650000000008,0.18969334375,0.002092499999999997,0.0141598,0.786287065625,0.0023643048915867183,0.7915022,0.7808584,0.6182529395067935,0.003061199999999986,0.786287065625,0.001526999999999945,0.010643800000000092,0.57719100234375,0.003674464513101382,0.5862649,0.5699329,0.33316295487604086,0.004607099999999975,0.57719100234375,0.002308549999999965,0.016332000000000013,6,LAYING
0.2369262875,0.09956467823330895,0.5832548,0.1048331,0.066047190860235,0.0822669,0.2369262875,0.03675015000000001,0.47842169999999995,0.05193727443828125,0.06606230752610659,0.2258509,-0.2151532,0.007061708951751223,0.06296699,0.06679257087421875,0.02322009,0.4410041,0.28560065859375006,0.06378965448377058,0.4800637,0.1679185,0.08563685620834258,0.08088034999999999,0.28560065859375006,0.03609139999999997,0.3121452,0.314069896875,0.022171023081994527,0.3849741,0.2290288,0.09913145438757547,0.013018924999999959,0.314069896875,0.006254599999999971,0.15594529999999998,0.78085108203125,0.023399523505476538,0.8460121,0.6785252,0.6102759500096573,0.01953875000000005,0.78085108203125,0.0063152499999999945,0.1674869,0.51710736328125,0.02680627511136872,0.5863513,0.4305626,0.2681186015450331,0.028428275000000003,0.51710736328125,0.009127749999999935,0.1557887,6,LAYING
0.150861648203125,0.0491213019930813,0.2451001,0.05358959,0.02517213920805894,0.090096025,0.150861648203125,0.046328249999999994,0.19151051,0.025084133765859374,0.017960509146145043,0.09773735,-0.01464139,0.0009517936555722862,0.019809495000000003,0.025871129181015622,0.009705120000000001,0.11237874,0.18879537125,0.06901871448504288,0.3235876,0.07833281,0.04040727515459319,0.10383039999999999,0.18879537125,0.0515371,0.24525478999999997,0.31486435312499994,0.004916936191114366,0.3261632,0.296697,0.09916373713033219,0.0055197750000000045,0.31486435312499994,0.002634300000000006,0.029466199999999998,0.7756247859375001,0.005137897082734429,0.7956504,0.7647619,0.6016202065470254,0.005683600000000011,0.7756247859375001,0.0025489499999999943,0.030888499999999985,0.52679490703125,0.006027512063164303,0.5543377,0.5082819,0.2775492049757349,0.005979024999999916,0.52679490703125,0.0030009500000000022,0.04605580000000009,6,LAYING
-0.032698813125000004,0.5023259170908451,0.4565978,-2.260283,0.2534005393609422,0.09690877249999999,0.29319011656250005,0.04956853,2.7168807999999998,0.07333687483617188,0.16357636384129676,0.6367203,-0.1522263,0.03213552401827664,0.0775845801675,0.10251685490757813,0.0223936155,0.7889466,0.019882428601562495,0.2118997268230521,0.1812374,-0.6895735,0.04529680519478034,0.1778287925,0.1608432251328125,0.054211949999999995,0.8708108999999999,0.2147198672421875,0.13299215649610605,0.3326648,-0.08615691,0.06379153507798739,0.25765088999999997,0.22056229263281252,0.011726899999999957,0.41882171,0.7190318890624999,0.1386305871587143,0.986462,0.2995589,0.5362252971847572,0.167463975,0.7190318890624999,0.006792049999999994,0.6869030999999999,0.6121691015625,0.13500189999590226,0.9512482,0.3761371,0.39297652191034205,0.2213194999999999,0.6121691015625,0.013795399999999958,0.5751111,6,LAYING
-0.008546080046875001,0.5318469459243491,0.5884191,-2.260283,0.2829342093732251,0.442576825,0.35115139698437503,0.18599800000000002,2.8487020999999997,0.017939613664062506,0.19659949543725577,0.6367203,-0.2658802,0.03897319134459937,0.17816047499999998,0.1429729913671875,0.07854621,0.9026005,-0.0121801157265625,0.1970582255009571,0.1812374,-0.6895735,0.03898029945669853,0.11527003499999999,0.1288025869453125,0.044871980000000006,0.8708108999999999,0.0964868434140625,0.08891838743052712,0.3326648,-0.08615691,0.01721619057525514,0.050890794999999996,0.10232926880468748,0.02661560999999999,0.41882171,0.6779535171875,0.12942442594507864,0.986462,0.2995589,0.476371653498115,0.12807259999999998,0.6779535171875,0.07089830000000008,0.6869030999999999,0.70537521953125,0.10771114412992516,0.9512482,0.3761371,0.5091558908985366,0.1479315,0.70537521953125,0.07024934999999999,0.5751111,6,LAYING
0.11325044215859376,0.16825601620122993,0.5884191,-0.3326153,0.04113574963702554,0.1646846404,0.15576920241328124,0.104030355,0.9210343999999999,-0.07625541556328125,0.05927507671009546,0.01924085,-0.2658802,0.009328423121716417,0.06530019249999999,0.07709164590390624,0.03770763,0.28512105,0.05735823911484375,0.03790196520257081,0.1725727,-0.04469966,0.004726526560572481,0.0479529175,0.05939636483359374,0.022345855,0.21727236,0.10145476476562501,0.027445068016985312,0.1446702,0.04422265,0.011046301052105254,0.04533669250000001,0.10145476476562501,0.020210089999999986,0.10044755,0.71781025859375,0.036007688073589596,0.795099,0.6390715,0.5165481209428312,0.055527800000000016,0.71781025859375,0.028094500000000022,0.15602749999999999,0.68239265546875,0.043698006871525356,0.7759982,0.6151783,0.46756925204223604,0.08139035000000006,0.68239265546875,0.033675399999999966,0.16081990000000002,6,LAYING
-0.009551553255468744,0.32040426402988925,0.4450682,-2.168331,0.10275012457812706,0.192488725,0.17996624028046876,0.10338014499999999,2.6133992,0.007581922117968749,0.1674565688282593,0.3765871,-0.4260088,0.02809918798673649,0.22117313,0.12682226022578125,0.07006285500000001,0.8025959,-0.06130236018046875,0.18311831877719043,0.1555753,-0.5777859,0.037290298035480646,0.14007278750000002,0.11936503973828125,0.06445813450000001,0.7333611999999999,0.10109976145312499,0.06223272879990717,0.2801273,-0.05615842,0.014094074299761573,0.05614155999999999,0.10656067223437499,0.023493110000000005,0.33628572,0.7776281593750001,0.07660679994718611,1.017936,0.5841235,0.6105741560510987,0.06316762499999995,0.7776281593750001,0.026211949999999984,0.43381249999999993,0.63917340078125,0.05159509583713555,0.7816329,0.4821509,0.4112046901807116,0.05022422500000001,0.63917340078125,0.024724100000000027,0.29948199999999997,6,LAYING
-0.2167378958578125,0.7985769265811145,0.8854364,-3.536968,0.6847004231686105,0.40954697500000004,0.44694794376406244,0.21571809999999997,4.4224044,0.03416011636093749,0.25345369295129155,0.9701211,-0.5515048,0.06540568802044038,0.3227159,0.1990200683453125,0.173363975,1.5216259,-0.08182480648835938,0.20865894709577545,0.4006077,-0.5777859,0.050233855159975076,0.24066273999999999,0.15111285955070314,0.069798795,0.9783936,-0.050865596984375,0.15687728213768398,0.2801273,-0.4665558,0.027197790607483365,0.24971381,0.134833853484375,0.12732601999999998,0.7466831,0.6019457615625001,0.2677257113939594,1.017936,-0.1795554,0.4340157564044598,0.3923307750000001,0.61049002359375,0.1953759499999999,1.1974913999999999,0.74021629609375,0.18624853135599462,1.281363,0.3253131,0.582608680435015,0.30331604999999995,0.74021629609375,0.12972980000000006,0.9560499,6,LAYING
-0.20847591432656248,0.7675348785479476,0.8854364,-3.536968,0.6325719966419089,0.5548155,0.4223855947171875,0.1811010335,4.4224044,-0.004424815593750002,0.22688185966703073,0.9701211,-0.5515048,0.051494957239008925,0.1317654025,0.153682826609375,0.06830001499999999,1.5216259,0.017815131353828128,0.1346137037487654,0.4006077,-0.4747971,0.018438228142114522,0.08377012,0.09534914533351563,0.0428035705,0.8754048000000001,-0.18417366031250001,0.07411926739968272,-0.01032836,-0.4665558,0.03941360295276981,0.06809665000000001,0.18417366031250001,0.0346814,0.45622744000000004,0.19267001144765622,0.2533040294088129,0.9783739,-0.1795554,0.10128466462598076,0.4620835175,0.23231398771328127,0.15370582000000002,1.1579293,0.91106153671875,0.15070553090374925,1.281363,0.3253131,0.8527452807333111,0.07239902500000006,0.91106153671875,0.028715600000000008,0.9560499,6,LAYING
0.0800364705234375,0.2576858021155898,0.2793978,-0.753663,0.07280780922580397,0.17217430250000001,0.2280197205703125,0.07806375000000002,1.0330608,-0.018494700546875,0.11012048207024479,0.4405429,-0.3630309,0.012468574519701682,0.029291532500000002,0.0688280063125,0.015281935,0.8035738,0.048399356875,0.060827651397416214,0.135509,-0.1693974,0.0060425009204392,0.03167103500000001,0.07164688515625,0.015017675000000005,0.3049064,-0.19305611156249997,0.029433539620848423,-0.09537732,-0.288964,0.03813699546624451,0.010959674999999974,0.19305611156249997,0.0059031999999999835,0.19358668,-0.030094136052343748,0.06054010647150921,0.3093866,-0.08890109,0.004570761516318647,0.027821177500000002,0.056591018807031254,0.011552529999999998,0.39828769,0.9691328632812499,0.018389869460885725,1.033581,0.888465,0.9395566939905025,0.011911450000000046,0.9691328632812499,0.006362299999999987,0.14511600000000013,6,LAYING
0.19487829140625001,0.04852142946665104,0.2793978,0.1014594,0.04033187757890648,0.08753012500000001,0.19487829140625001,0.0415215,0.17793839999999997,-0.0253284371484375,0.014945464433317275,0.02243954,-0.0671657,0.0008648966355099003,0.0195929225,0.026154204273437502,0.009513145,0.08960524,0.055677073671875,0.01920561156897318,0.0927452,0.01960727,0.0034687920484016725,0.03337986749999999,0.055677073671875,0.01675319499999999,0.07313793,-0.19960603125,0.0062430496666136415,-0.1814377,-0.2170045,0.039881543380515784,0.008155200000000029,0.19960603125,0.00405525000000001,0.03556679999999998,-0.046115977890625,0.015583158338458586,-0.02442369,-0.08890109,0.002369518240610085,0.019794159999999998,0.046115977890625,0.009905365000000003,0.0644774,0.97164999921875,0.00493990315198739,0.9847474,0.9583884,0.9441281236249479,0.006363650000000054,0.97164999921875,0.0031233500000000247,0.02635900000000002,6,LAYING
0.11782843703125001,0.04487595844839569,0.2085809,0.04383151,0.015897392219889384,0.074455405,0.11782843703125001,0.034322075,0.16474939000000002,-0.015051913546875002,0.011067931932333006,0.02243954,-0.05228332,0.00034905921868135577,0.012603551250000001,0.015877680671874998,0.006197207000000001,0.07472286,0.032194684328125,0.01690322049204402,0.07023235,0.009947104,0.0013222165619902744,0.018946209999999998,0.032194684328125,0.00993855,0.060285246,-0.200835546875,0.005318799760797448,-0.1814377,-0.2170045,0.04036320651947578,0.0053433749999999836,0.200835546875,0.0026285499999999795,0.03556679999999998,-0.03267160390625,0.007475264901719749,-0.01894193,-0.05331323,0.0011233132871577734,0.008332840000000005,0.03267160390625,0.0038463699999999983,0.03437130000000001,0.9731089390625,0.0042218583917925405,0.9850248,0.9619381,0.9469588313716246,0.005152524999999963,0.9731089390625,0.002534349999999963,0.023086700000000016,6,LAYING
0.0481197207625,0.03435676185830274,0.1071934,-0.002013969,0.0034958946116490997,0.06693385500000001,0.048215137318750004,0.036561575,0.109207369,-0.00659228029375,0.007253925941145616,0.008444681,-0.02446343,9.607760103098992e-05,0.00952813975,0.00817891229375,0.0052141565,0.032908111000000004,0.010626708657578122,0.011179081161423583,0.03198244,-0.01002326,0.00023789879250674155,0.0197012480325,0.012641371479921875,0.009636165499999998,0.0420057,-0.19930320703125,0.0029054289500751755,-0.1922968,-0.2079937,0.039730209850325236,0.0038963500000000206,0.19930320703125,0.002047750000000015,0.015696900000000014,-0.02355774734375,0.006551948719209003,-0.01217713,-0.03686137,0.0005978954919311046,0.011095127500000003,0.02355774734375,0.005741315,0.024684239999999996,0.9745531828124999,0.00357148350601919,0.9850248,0.9655085,0.9497666616244078,0.004471575000000061,0.9745531828124999,0.0022288500000000044,0.019516300000000042,6,LAYING
0.005523137333984376,0.01751110297464546,0.06009011,-0.0200018,0.0003371437733986891,0.018637531,0.013069608244140624,0.0096474765,0.08009191,0.0002472017054687501,0.005838816469803854,0.01158231,-0.01540932,3.41528864512394e-05,0.0066661945,0.00464170573984375,0.00311933,0.026991630000000003,-0.0022637730846093752,0.006487258925312581,0.01701593,-0.01598679,4.720919694264958e-05,0.00616679105,0.005664511456484375,0.003416169185,0.03300272,-0.19803603203124998,0.002937033523385394,-0.1912884,-0.2057745,0.03922689614859977,0.00440370000000001,0.19803603203124998,0.0022210000000000146,0.014486100000000002,-0.016894076953125,0.0032815758244974127,-0.01071455,-0.0257553,0.00029617857599003515,0.004668365000000001,0.016894076953125,0.0023465150000000004,0.015040749999999999,0.97424469453125,0.0036717038727635664,0.9849173,0.9647819,0.9491662062316177,0.004904900000000101,0.97424469453125,0.002447400000000044,0.020135400000000025,6,LAYING
-0.0060042573753906255,0.008110744191710534,0.01199177,-0.02494424,0.00010183527797329887,0.013015286875,0.008394411175390625,0.0066624957,0.03693601,0.002543336938046875,0.004352897479810093,0.01158231,-0.01112572,2.541627925017072e-05,0.005371352825,0.0040722177880468755,0.0024317295650000004,0.02270803,-0.00439023765390625,0.004547002481123173,0.007120273,-0.01598679,3.994941822111655e-05,0.00606926475,0.00536192554453125,0.0027312560000000005,0.023107063,-0.1992261796875,0.0036702972640458432,-0.1886926,-0.2082813,0.0397045417548825,0.005155350000000003,0.1992261796875,0.0026794000000000123,0.019588700000000014,-0.0128492675,0.004276545589795874,-0.001558632,-0.02150609,0.0001833925174681588,0.004944477499999999,0.0128492675,0.0025689350000000005,0.019947457999999998,0.97315004296875,0.003792968742779273,0.9822782,0.9647819,0.9470353927419637,0.006275100000000089,0.97315004296875,0.0031532499999999963,0.01749630000000002,6,LAYING
-0.46622599656249997,0.5884482093400366,0.8611814,-1.485695,0.5636379749461918,0.9942575125,0.6226098729687499,0.48617221,2.3468764,0.070601635421875,0.6562920866708519,1.613873,-1.445156,0.43570389395102443,0.8599876000000001,0.5239242259375,0.41957491,3.0590289999999998,0.0752891383125,0.2642686053422219,0.7457733,-0.5953186,0.07550635011736177,0.348964855,0.22084512956250002,0.17668298,1.3410919,1.00515624609375,0.21863843047215065,1.531087,0.5084297,1.0581418423406048,0.2621197999999998,1.00515624609375,0.12482875000000004,1.0226573,-0.2383587159296875,0.14784540566708712,0.01665338,-0.6488126,0.07867314143651502,0.159327225,0.2388007979765625,0.08224129999999999,0.66546598,-0.04591720158593751,0.14385809383500237,0.3586488,-0.3648347,0.02280354056332397,0.15222958000000003,0.1268105645234375,0.06993261,0.7234835,1,WALKING
0.12558358382812498,0.5227798838896571,1.079504,-1.42357,0.289070043526799,0.643027375,0.42950117976562496,0.32328115,2.503074,-0.106016830046875,0.6971052305497687,1.500908,-1.445156,0.49719527071303404,1.0518615500000001,0.5742773240156249,0.53988415,2.946064,4.796548437499201e-05,0.29052545206977426,0.7457733,-0.6241102,0.08440504060103438,0.39758547499999997,0.234443161796875,0.20144814,1.3698834999999998,0.99679782890625,0.2503762249031146,1.531087,0.5084297,1.0562941657089486,0.41775257499999996,0.99679782890625,0.19438145000000007,1.0226573,-0.25853001697656247,0.17340778015598277,0.01665338,-0.7040854,0.09690802789652736,0.216649,0.25893268739843744,0.10664615000000001,0.72073878,-0.03350532237109375,0.13472347250009795,0.3577197,-0.3648347,0.019273020669675567,0.15694712500000002,0.11199742539453125,0.077040845,0.7225543999999999,1,WALKING
0.24636389251562502,0.48271912297053204,1.079504,-1.026,0.29371291921689,0.69555357,0.465974281890625,0.32361305,2.105504,-0.08965132049999999,0.7164216984585737,1.54031,-1.564677,0.5212974092896614,1.044303,0.5976751966875,0.5577677,3.1049870000000004,0.006927958265625003,0.3171011908407691,0.7861582,-0.8303053,0.1006011618383641,0.43496035,0.26021186309375,0.21584756,1.6164635,1.00031071171875,0.23538556219524653,1.528028,0.5814143,1.0560278828692446,0.32576634999999987,1.00031071171875,0.15487499999999998,0.9466136999999999,-0.23489924676562496,0.173633516837733,0.01473926,-0.7040854,0.08532625430049728,0.1880872,0.23546972034374997,0.08705745,0.71882466,-0.035728561167968756,0.12973116076692467,0.3577197,-0.3259199,0.018106704157066937,0.125292964,0.10969682583203125,0.061024880499999996,0.6836396,1,WALKING
0.12763623463281248,0.5564762131457496,1.038888,-1.605516,0.3259567841882761,0.6859926000000001,0.4781203716640625,0.33467203999999995,2.6444039999999998,-0.04020771619609374,0.7968041694486799,2.128034,-1.564677,0.6365135448925063,0.9878208500000001,0.6351022068210938,0.49649645000000003,3.692711,-0.0267648990703125,0.3513049387738488,0.7861582,-0.8303053,0.12413151982914167,0.560326425,0.2946014176484375,0.28085395,1.6164635,1.02285026875,0.24999200997326637,1.533829,0.5714407,1.108718677332421,0.37009725000000004,1.02285026875,0.17648445000000001,0.9623883000000001,-0.24004275233593753,0.20054852692534,0.08176948,-0.7313113,0.09784023460093605,0.21194844000000002,0.24301077008593752,0.10679092999999998,0.81308078,-0.050717068726562495,0.14286146433474045,0.2942016,-0.3827815,0.02298161905208118,0.13642121499999998,0.1230269830078125,0.069430511,0.6769831,1,WALKING
0.03755891040624999,0.5415984831157798,0.941785,-1.605516,0.29473958866421834,0.754106425,0.446043915875,0.34333990000000003,2.547301,0.038828459264843754,0.8664845528308505,2.128034,-1.494807,0.7523031295433604,1.0918100750000002,0.6954744486882813,0.55683558,3.622841,-0.036362444367968746,0.3358665206019839,0.6784206,-0.7612723,0.11412854702169653,0.542017175,0.27086073371171876,0.26701865,1.4396929,1.0052535554687498,0.2515832629623438,1.533829,0.5714407,1.073828848985343,0.41732357500000017,1.0052535554687498,0.20169379999999998,0.9623883000000001,-0.24527713239062499,0.1995600090344076,0.08176948,-0.7523638,0.09998506887958104,0.24381568250000002,0.248794948546875,0.10371487000000001,0.8341332800000001,-0.044789579146875,0.15769990378989013,0.378188,-0.3885285,0.026875366055494784,0.17411095999999998,0.13306261145937498,0.068983055,0.7667165,1,WALKING
-0.015348241070312492,0.42597648807697674,0.8499984,-1.195586,0.1816915368983471,0.5984737,0.3478320813046875,0.322404461,2.0455844,0.0776376071015625,0.7846720446963575,1.830636,-1.433065,0.6217378157644192,1.2151106249999999,0.6369575438203124,0.5561278000000001,3.263701,-0.0007423726101562465,0.30486587177135044,0.6784206,-0.7879287,0.09294375088799779,0.3741965,0.23402230275078123,0.17804907,1.4663493,0.99999955859375,0.25227763649613155,1.590203,0.6027336,1.0636431230637693,0.418401775,0.99999955859375,0.2023243500000001,0.9874694,-0.216282132625,0.17589097099646886,0.05042618,-0.7523638,0.07771559457089874,0.18813218500000006,0.21865078034375,0.09176493000000001,0.80278998,-0.011979294412500001,0.15971131419172568,0.4211553,-0.3885285,0.025651207375469467,0.253533525,0.13213560233437502,0.08431945499999999,0.8096838,1,WALKING
-0.009871683742187491,0.4316534461264968,0.8499984,-1.123589,0.18642214769278626,0.5537989750000001,0.3436532680234375,0.28684681,1.9735874,-0.010536542801562496,0.6867696987991445,1.674102,-1.365554,0.4717636379228768,0.9953576749999999,0.5548687454265625,0.48522981499999995,3.039656,0.02042575387421875,0.32899019234139076,0.8261808,-0.7879287,0.10865175807815547,0.40374555,0.25778561606328126,0.206935055,1.6141095,1.01668975390625,0.24912497045841894,1.590203,0.5296504,1.0957213066038594,0.3513094000000001,1.01668975390625,0.18857810000000003,1.0605526,-0.21664662066406248,0.1772952407152481,0.08217535,-0.6660752,0.07836936062543598,0.20872849,0.22052398464843748,0.099769585,0.74825055,-0.0073533148749999975,0.15141787195221282,0.4211553,-0.3492644,0.022981443186187618,0.245045075,0.12492278639062501,0.10482505,0.7704196999999999,1,WALKING
0.011928865773437505,0.4594107239410782,0.7712677,-1.242651,0.2112005111107062,0.6213915999999999,0.3710306461015625,0.32276355,2.0139187,-0.067910667840625,0.7176060643348472,1.817055,-1.230092,0.5195703223767085,0.92327625,0.5857960842625,0.4281271,3.047147,0.0276604893609375,0.3405821555202292,0.8726726,-0.7683791,0.11676130733049211,0.46764135,0.2733113462640625,0.23910786,1.6410517,0.9981040828125001,0.24491071816877447,1.496887,0.4938898,1.0561930200009266,0.35487955000000004,0.9981040828125001,0.17852985000000005,1.0029972,-0.2355499903671875,0.18153404656629507,0.08217535,-0.6897217,0.0884384080247159,0.25187824999999997,0.23938536027343751,0.110581595,0.77189705,-0.0284815736328125,0.14284270117384315,0.3533934,-0.3868657,0.02121523731524118,0.1933679,0.11985894052343748,0.08709694999999999,0.7402591000000001,1,WALKING
-0.2182447922421875,0.4657378428120825,0.7951254,-1.424621,0.26454252756808766,0.678537975,0.3982867335390625,0.3082163,2.2197464,0.0688841202109375,0.6368777419961856,1.417763,-1.049573,0.4103582802673949,0.816467225,0.5060533857734375,0.3877136,2.4673360000000004,-0.019117914804687504,0.276368224761678,0.727272,-0.652981,0.07674489032440064,0.30125179999999996,0.21567826167968748,0.155603225,1.3802530000000002,1.01260667265625,0.21039813539883837,1.44589,0.6220394,1.0696396488872697,0.30672164999999996,1.01260667265625,0.15713075000000004,0.8238505999999999,-0.2485106289453125,0.16963603521828358,0.03071216,-0.8087442,0.09053391714337354,0.2160085,0.24914344378906253,0.09128784999999998,0.83945636,-0.032890744374999996,0.14778355206804286,0.3185575,-0.3261112,0.02292177932738953,0.242302825,0.12999158292187502,0.09333019499999999,0.6446687,1,WALKING
-0.044413977760937515,0.4633750819940234,0.7981004,-1.424621,0.21668906803351695,0.5066834499999999,0.3623997812296875,0.30337884000000004,2.2227214,-0.0200806558984375,0.6968673152429552,1.395472,-1.186738,0.48602728779523585,1.084330725,0.5782093728515625,0.5518142749999999,2.58221,0.0281301111484375,0.3021174757721763,0.7730388,-0.9526131,0.09206627232017495,0.3294233,0.2313535916640625,0.18024194999999998,1.7256519,1.00521228046875,0.2397378010108081,1.591402,0.6220394,1.0679259420386826,0.40129199999999976,1.00521228046875,0.1923442999999999,0.9693626,-0.24704625890625,0.19038195984619732,0.00978799,-0.8087442,0.097277144674453,0.24404912499999998,0.247223240578125,0.10224765000000001,0.81853219,-0.0313737775,0.14144852408005973,0.3680056,-0.3214357,0.020991998879046743,0.1504987975,0.118838408078125,0.06958420000000001,0.6894412999999999,1,WALKING
0.0417240801140625,0.4257199115558179,0.8498686,-1.209773,0.18297834195645812,0.487674375,0.3367433220734375,0.24870141,2.0596416,-0.09964951435937501,0.6894859564275229,1.501085,-1.186738,0.4853209098228352,0.932213325,0.570480774546875,0.4786614,2.687823,0.043118011414062504,0.3160065268454403,0.8352017,-0.9526131,0.10171928791722122,0.36625605,0.2464141649921875,0.19099135,1.7878148,0.9894290968749999,0.24044021168219695,1.591402,0.5611522,1.0367814331366578,0.36529152499999995,0.9894290968749999,0.18029194999999998,1.0302498,-0.231764941296875,0.1764555738089895,0.01385738,-0.7399197,0.08485155754260365,0.19277682500000004,0.23226708584375,0.09378575,0.75377708,-0.0407739736171875,0.1408594762997629,0.3680056,-0.3234537,0.021503908987978566,0.1507513125,0.12410516528906251,0.0715500885,0.6914593,1,WALKING
0.008233428359375001,0.44258114135144616,0.8498686,-1.209773,0.1959458560224977,0.5033842749999999,0.352379159140625,0.259737,2.0596416,-0.040122372343750004,0.7149277114312601,1.882439,-1.270662,0.5127314373348296,0.904209375,0.58102871625,0.4709837,3.153101,0.00584030628125,0.3320491467726238,0.8352017,-0.7780301,0.11029074504988631,0.48289925,0.26977483575,0.22918311,1.6132317999999999,1.00792252578125,0.2472941492435259,1.572386,0.5611522,1.0770622142273338,0.370296575,1.00792252578125,0.17998300000000006,1.0112338,-0.23562358688281249,0.18427677653846708,0.01385738,-0.7318584,0.08947640506693043,0.1855768,0.2361599410078125,0.089357775,0.74571578,-0.055630203343750004,0.1371299846011843,0.3033157,-0.3728536,0.021899352200788015,0.145136843,0.12538500990625,0.08160792,0.6761693,1,WALKING
-0.022202359218749995,0.4903325927792596,1.030183,-1.166135,0.24091899629650965,0.6992816500000001,0.39907836374999994,0.32655651,2.1963179999999998,0.07352764674999998,0.7904096604859295,1.882439,-1.608153,0.6301537462260751,1.3727807749999998,0.65078464753125,0.6524239000000001,3.490592,-0.029533453500000004,0.33534718363802235,0.6333528,-0.7780301,0.11332995844959015,0.49560185,0.27706858571875,0.2483013,1.4113829,0.9995103476562501,0.25981417432254467,1.572386,0.5650768,1.0665243402508233,0.405773575,0.9995103476562501,0.20417324999999997,1.0073092,-0.25243004757812504,0.19434749631951076,0.00766843,-0.7562556,0.10149187824595671,0.23290779999999994,0.25260812070312505,0.10223779500000002,0.76392403,-0.04849935475,0.14062745675334667,0.2963542,-0.3728536,0.02212826900408074,0.16941411750000002,0.121846657203125,0.08407465,0.6692078,1,WALKING
0.010053347734375004,0.4706735885136053,1.125269,-1.166135,0.22163469672494293,0.634919025,0.37534263148437497,0.30771727000000004,2.291404,0.08111863018749998,0.7909570833081422,2.005401,-1.608153,0.6321933397988198,1.1751874500000001,0.6359954601875,0.6204916,3.6135539999999997,-0.002951487624999999,0.32733230939740887,0.6333528,-1.156215,0.10715515205464152,0.39171615000000004,0.24825733593750002,0.1747297,1.7895678,1.0039282507812501,0.2705085228450067,1.633125,0.5650768,1.081046793648488,0.4443689999999998,1.0039282507812501,0.21721649999999998,1.0680481999999998,-0.237379814875,0.20393795204276755,0.02332805,-1.014547,0.09793986479348743,0.20144847249999995,0.23796399421875,0.09886472,1.03787505,-0.0163300823984375,0.15527766651286123,0.3653906,-0.357533,0.024377825308819108,0.240102425,0.1291131965078125,0.09461394000000001,0.7229236,1,WALKING
0.01670081540625,0.4233126892956773,1.125269,-1.160861,0.1794725501539723,0.5403294,0.3336019180625,0.2766279325,2.28613,-0.035660483124999996,0.7262030156914592,2.005401,-1.463024,0.5286424900560781,0.9551649499999999,0.5779700639062499,0.48031985,3.468425,0.011670802546875001,0.3480504187971273,0.9855647,-1.156215,0.12127530165694382,0.3446089,0.247512336140625,0.176133665,2.1417797,1.0218117609375001,0.2573448603830056,1.633125,0.5844093,1.1103256519557432,0.4025712499999998,1.0218117609375001,0.20567619999999998,1.0487156999999998,-0.2446079729921875,0.21122387671235374,0.05663829,-1.014547,0.10444858654474233,0.21530871750000002,0.24706851078906247,0.10136240500000002,1.07118529,-0.0191882857546875,0.15170956715148565,0.3653906,-0.357533,0.02338398307549467,0.2549535,0.1288809406609375,0.1095005,0.7229236,1,WALKING
0.0419470204140625,0.4595332586474135,1.030273,-1.341255,0.21293036832472842,0.5987513,0.3692737824453125,0.3001435,2.371528,-0.06919238062500001,0.743330556214129,1.861438,-1.511847,0.5573279013381613,1.0253588,0.60067157,0.47804735000000004,3.373285,0.025029792156249998,0.35772873943901795,0.9855647,-1.034205,0.1285963415160139,0.42068684999999995,0.27586192484375005,0.20738741000000002,2.0197697,1.00137896484375,0.25357129774869885,1.595618,0.5504536,1.0670582342734996,0.34807410000000005,1.00137896484375,0.1736628,1.0451644,-0.240928107421875,0.20093149134239743,0.1485273,-0.7811182,0.09841981715896647,0.2560649575,0.24703524665625004,0.11836110500000002,0.9296455,-0.03856147822054687,0.14230008650029513,0.3003034,-0.36617,0.02173630222054519,0.2162296675,0.12424436347054688,0.10106467,0.6664734,1,WALKING
0.0436533746796875,0.5053376154952528,1.030273,-1.443266,0.2572717227553532,0.58112305,0.4040057500234375,0.27603355,2.4735389999999997,-0.05250744601562499,0.755127528921809,1.861438,-1.684164,0.5729746168226413,0.9725625999999999,0.5974828775781251,0.46238545,3.5456019999999997,0.007641346789062501,0.3359786673568734,0.660511,-0.7419638,0.1129400550996513,0.5088119,0.27845949449218743,0.25619505,1.4024747999999998,0.9979056007812499,0.25828221524559697,1.595618,0.4993323,1.0625252907827605,0.34487355,0.9979056007812499,0.1708445,1.0962857,-0.2216343708671875,0.18976463482892514,0.1485273,-0.7291983,0.08513241098144932,0.2049517825,0.22704077852343751,0.08883614000000001,0.8777256,-0.03754333968539063,0.14295611003625727,0.2828899,-0.36617,0.02184595175143112,0.204203835,0.12354388688851561,0.09750030500000001,0.6490599,1,WALKING
-0.018417303609374994,0.5029046264227929,0.9323905,-1.443266,0.2532522603496888,0.620303825,0.399755232046875,0.27235835,2.3756565,-0.03235721846093748,0.7544834128460495,1.704387,-1.684164,0.5702922098463512,1.036712925,0.5991391329921876,0.4777,3.388551,-0.035199436195312496,0.3433632429655007,0.6326711,-0.8173798,0.11913731692825333,0.5326911999999999,0.28399346307031254,0.2736159,1.4500509,1.0142960554687501,0.244374670915037,1.566137,0.4993323,1.0885154679242983,0.36395670000000013,1.0142960554687501,0.17066955,1.0668046999999998,-0.235789957890625,0.1941742940821722,0.02812941,-0.7291983,0.09330056072437261,0.2069785,0.23769137632812498,0.0928061,0.75732771,-0.04284144549296875,0.1482091323477858,0.2828899,-0.3439487,0.023801336363210496,0.2212084825,0.12900173569609374,0.10412211,0.6268386,1,WALKING
-0.041953836359375,0.4802594379857216,0.7363241,-1.192012,0.23240925215963038,0.7725167,0.3934226208125,0.320511455,1.9283361,0.044375648687500005,0.8035775476548048,1.91411,-1.33247,0.6477060732913464,1.135941025,0.645937211390625,0.5715051600000001,3.24658,-0.0443131078125,0.35481197661085917,0.6326711,-1.003948,0.12785519027050715,0.5292691,0.2911457421875,0.27413365,1.6366191,1.0175860796875,0.226966229407408,1.514249,0.5734377,1.0869950988651913,0.33473197499999996,1.0175860796875,0.15729565,0.9408112999999999,-0.2281920877890625,0.19763971872822106,0.1634532,-0.7905166,0.09113308734850156,0.24120080000000005,0.2356515229921875,0.08897036000000001,0.9539698,-0.03968068857734375,0.14817516344537246,0.2582499,-0.3439487,0.023530436108034986,0.2255884575,0.12837209990703125,0.11373098,0.6021985999999999,1,WALKING
-0.03934554534375001,0.43159364189101534,0.7363241,-1.013003,0.18782114365914704,0.704757675,0.356307591671875,0.32947479,1.7493271000000001,0.080839490359375,0.7765434261994228,1.91411,-1.33247,0.6095547159751019,1.0341437500000001,0.6291245383125,0.5258779,3.24658,0.004112248252343751,0.33978097669545937,0.4789956,-1.003948,0.11546802270980919,0.491724625,0.27955899215859376,0.24913531,1.4829436,1.003948846875,0.20740964420229696,1.453681,0.5734377,1.0509320476497657,0.2868695749999999,1.003948846875,0.1477963,0.8802433,-0.2115484948984375,0.1774696606290213,0.1634532,-0.7905166,0.07624824613757425,0.16302389999999997,0.22110895088281252,0.0711975,0.9539698,-0.0220436424328125,0.13610901021823257,0.3695875,-0.3342214,0.019011584834292633,0.1945095625,0.1114902358484375,0.095847845,0.7038089000000001,1,WALKING
0.22615055399999998,0.4735987239841716,1.035523,-1.054823,0.27543982443394244,0.68726935,0.44725924465625,0.32962195000000005,2.0903460000000003,-0.0006696747210937493,0.787566630341158,1.699382,-1.634697,0.6202616456911585,1.1492569000000001,0.6495470369976561,0.59576141,3.334079,-0.04811856371875,0.3561608295245308,0.7484719,-0.9089639,0.12916593266195728,0.54238575,0.29047469415625,0.25865570000000004,1.6574358,1.013490315625,0.2653771163048903,1.665851,0.5023971,1.0975876337239612,0.36374209999999985,1.013490315625,0.17692849999999993,1.1634539,-0.24690025950781253,0.19563984565145637,0.07270941,-0.8206217,0.09923468735155082,0.24673384999999998,0.24892203264843754,0.09503907,0.89333111,-0.0537941735234375,0.14116146470783728,0.3303058,-0.3926028,0.02282037222353169,0.1812748025,0.12489615163281251,0.09283912,0.7229086,1,WALKING
0.050699369171875,0.4504297271039926,1.035523,-1.107429,0.20545736509340334,0.6131657,0.36963936807812503,0.30796534999999997,2.142952,0.062663205703125,0.7476807779584762,1.565314,-1.634697,0.5629532230775842,1.2072918750000001,0.610041876953125,0.57909774,3.200011,-0.005997320335937499,0.3346972505979449,0.7241688,-0.9089639,0.11205821740903538,0.4396448,0.26411742608593747,0.2255149,1.6331327,0.99711337734375,0.2886614936811171,1.665851,0.5023971,1.0775605452120733,0.44647522500000003,0.99711337734375,0.22055934999999993,1.1634539,-0.24897146404687504,0.19044190651077672,0.009449491,-0.8206217,0.0982549096651038,0.216809925,0.24924533668749999,0.09231129999999999,0.830071191,-0.03322402754687499,0.1410655103406622,0.2956172,-0.3315283,0.02100331421410698,0.2044331775,0.12084053790625002,0.10025374000000001,0.6271455,1,WALKING
-0.009223644359375002,0.4381928087073886,1.010127,-1.295838,0.1920980132181383,0.512991725,0.33970048826562504,0.251285815,2.305965,-0.0066401726640624905,0.703254786373624,1.637777,-1.451705,0.4946113864504202,1.032320025,0.5708611287421874,0.5119241999999999,3.0894820000000003,0.0324665173828125,0.30948584197740764,0.7241688,-0.6576173,0.09683556113543337,0.439602525,0.2473176715390625,0.213867835,1.3817860999999998,1.0021994929687499,0.2793730527474306,1.64462,0.5046181,1.0824531263082382,0.45105059999999997,1.0021994929687499,0.21349485,1.1400019000000001,-0.25562287771875,0.17813824732988817,0.005760513,-0.7614166,0.09707629077497942,0.20572680000000004,0.255712885734375,0.09219825000000004,0.767177113,-0.01965618639453125,0.1322293458963322,0.2956172,-0.3382989,0.01787096557974842,0.1877265075,0.11145986286328126,0.084710615,0.6339161,1,WALKING
-0.005490191703124999,0.461859926306575,1.080751,-1.451273,0.213344733732852,0.52240705,0.349264705921875,0.26566495,2.532024,-0.0419442669609375,0.7892051062751201,1.895759,-1.662794,0.6246040213016139,1.2386905499999998,0.6419013102265625,0.57224495,3.558553,0.039834802531250005,0.33895940567430494,0.7804657,-0.8577034,0.11648029018778172,0.48312184999999996,0.2761047003125,0.2408051,1.6381691,0.9931807968749999,0.26937154966673266,1.64462,0.5308639,1.058969127051117,0.43289405000000014,0.9931807968749999,0.1946502,1.1137560999999998,-0.2501816487265625,0.2060398560848083,0.04504426,-1.065169,0.10504327965498962,0.23014675,0.2516863203671875,0.10632188000000001,1.11021326,-0.0337624033640625,0.1340000919796188,0.3496802,-0.3382989,0.01909592453146395,0.13220270750000002,0.1121365683640625,0.065468695,0.6879791,1,WALKING
-0.018004829585937507,0.480691014701679,1.080751,-1.451273,0.2313880255033485,0.5914591499999999,0.3661576414140625,0.295104505,2.532024,-0.08484902374999999,0.8071425370009135,1.955782,-1.662794,0.658678431867599,1.0177807,0.6494207003125,0.5520269,3.618576,-0.013567614515625,0.33915102028385197,0.7804657,-0.8644967,0.11520749472322239,0.428582275,0.27321153175,0.2247508995,1.6449624,0.99372288828125,0.2479819743523142,1.586018,0.5308639,1.0489802382977014,0.33644430000000003,0.99372288828125,0.16402365000000002,1.0551540999999998,-0.23815232353906252,0.2097272724058448,0.04504426,-1.065169,0.10070205799784974,0.20227477000000002,0.23987032708593753,0.09960566,1.11021326,-0.03990663849296875,0.13951126638252867,0.3496802,-0.3184499,0.021055933243465365,0.14383383,0.11875621130546875,0.07497590999999999,0.6681301,1,WALKING
-0.040011937109375006,0.47409417678308097,0.8151044,-1.383263,0.22636624357087182,0.69146215,0.3727699995625,0.30982150500000005,2.1983674,0.03611263989843749,0.8177581107168249,1.955782,-1.231281,0.6700324504035852,1.11194525,0.6513268705234374,0.56855075,3.187063,-0.05100424092968751,0.31615895104329983,0.5205882,-0.8737741,0.10255791491761329,0.47082205,0.2572529386171875,0.23422105,1.3943623,1.0162469140625,0.2431070980642536,1.527534,0.5397647,1.091858851470777,0.37131344999999993,1.0162469140625,0.16316619999999998,0.9877693,-0.24979438435156248,0.21763483674883038,0.2141882,-0.9543908,0.10976215662026617,0.21173694999999998,0.2566533420546875,0.10129714000000001,1.168579,-0.0471953225234375,0.14706172975376466,0.3482105,-0.3909074,0.023854550826260597,0.16862218,0.1251520641484375,0.08186700499999999,0.7391179,1,WALKING
-0.020461786117187505,0.4299447012150992,0.8485925,-1.261722,0.18527113079404645,0.6325270999999999,0.3407479331484375,0.280854785,2.1103145,0.0988666047421875,0.7715536340516086,1.915834,-1.107594,0.6050696157514914,1.25068795,0.6347822936484375,0.55073717,3.023428,-0.010831849390625002,0.3068476780909095,0.5909396,-0.8737741,0.0942728265110036,0.4153774,0.244944351421875,0.209774805,1.4647137,0.9967728429687499,0.24998683146852385,1.565606,0.5397647,1.0560495163876764,0.38001684999999985,0.9967728429687499,0.16331270000000003,1.0258413000000002,-0.23704070825781248,0.20402251038619262,0.2141882,-0.9543908,0.09781348211564944,0.2057254,0.2445600350859375,0.09426224,1.168579,-0.027110006223437504,0.15068390605885787,0.3482105,-0.3909074,0.023440591982589527,0.22170843750000002,0.12430295247343749,0.100372985,0.7391179,1,WALKING
-0.0332963959921875,0.3946025184657359,0.8485925,-1.181877,0.15681979756557002,0.558416675,0.3073739461796875,0.24315985,2.0304695,0.04524910875,0.7087965325904653,1.543525,-1.102447,0.5044400064549357,1.217963275,0.583097985625,0.53009735,2.645972,0.012919187406249998,0.2979739043931949,0.5909396,-0.7381398,0.08895535310256267,0.39684177499999995,0.242377544625,0.1976974,1.3290794,1.012042465625,0.26112659437451813,1.633899,0.6002353,1.0924170505179633,0.39756460000000016,1.012042465625,0.1991155,1.0336637,-0.22129550914843749,0.17081598447097962,0.03925332,-0.7020143,0.07814980292005615,0.16963394999999998,0.2223000521171875,0.07570675000000003,0.74126762,-0.0013594657468749996,0.14637481910532718,0.2720661,-0.356691,0.021427435815234177,0.250340625,0.12327065502812501,0.11177388499999999,0.6287571,1,WALKING
0.010998215281249994,0.42852593136554884,0.976662,-1.230161,0.18375543459208382,0.490488575,0.33313316870312504,0.22879596500000002,2.206823,-0.026093015937499978,0.7561427518684987,1.736475,-1.174619,0.5724327066839807,1.120860325,0.6110142282812501,0.56677515,2.9110940000000003,0.014374398468749997,0.3204046515922574,0.9324535,-0.7862329,0.10286576409329422,0.4176362,0.25912130043750004,0.2039332,1.7186864000000002,1.01867536328125,0.2605584030360408,1.633899,0.5518265,1.1055901771488785,0.37920022500000017,1.01867536328125,0.17840960000000006,1.0820725,-0.23052991442187498,0.19443561216122013,0.04800383,-0.7606242,0.09094924871986543,0.20562766000000005,0.23179534807812502,0.08398803500000002,0.8086280299999999,-0.015449972275781248,0.14864229114066818,0.3686953,-0.356691,0.022333232358869574,0.248071775,0.12384901921328124,0.08741298,0.7253863,1,WALKING
0.06646987892968749,0.4512017327948562,0.976662,-1.230161,0.20800124848200813,0.5588898,0.3657513379921875,0.2839698,2.206823,-0.07272519632812499,0.7750022390226251,1.777248,-1.532502,0.6059174246710466,1.08082395,0.629329927421875,0.56092275,3.30975,0.0356831625,0.3322110134216901,0.9324535,-0.9289715,0.1116374455246678,0.385858425,0.261835573203125,0.204527085,1.861425,0.9949083890625,0.2448262716662688,1.587756,0.5518265,1.0497826059249444,0.359928775,0.9949083890625,0.17332319999999996,1.0359295,-0.231203968225,0.22222478853291988,0.08235654,-0.9031254,0.10283913156148777,0.25633206999999997,0.23612208735,0.11997415000000002,0.98548194,-0.0376624059015625,0.14399245188199025,0.3686953,-0.3549742,0.022152283017281334,0.158443575,0.1195946451359375,0.07888565,0.7236695,1,WALKING
0.030376209865624983,0.4731148199103497,0.9529118,-1.167762,0.22476034694460315,0.56386435,0.37852260575937496,0.25560574999999996,2.1206738,-0.045400651484375006,0.7739343455191573,1.777248,-1.532502,0.6010355903293719,1.1914071,0.6418649672656249,0.56092275,3.30975,-0.002263926546874996,0.3292876857888717,0.602614,-0.9289715,0.10843550537560036,0.47437405,0.26460371509375,0.238190025,1.5315854999999998,1.0097774390624998,0.23601911600035713,1.500886,0.6091296,1.0753554995572108,0.38617749999999995,1.0097774390624998,0.1864845,0.8917563999999999,-0.2303870418734375,0.21522668406200005,0.08235654,-0.9031254,0.09940071459551703,0.24715837749999997,0.23566120802968749,0.11414434000000001,0.98548194,-0.047992248750781244,0.14025630026621183,0.3175666,-0.3341275,0.021975085704522633,0.1740993125,0.12327977282890624,0.08790173000000001,0.6516941,1,WALKING
-0.005963399899999999,0.4788532000996303,0.8751524,-1.343987,0.2293359493840239,0.58645865,0.37428250068124996,0.28959114,2.2191394,0.011311853125000007,0.7962212077388222,2.043665,-1.396376,0.6340961696741902,1.1661288499999998,0.66326189234375,0.5306785,3.440041,-0.0520452821953125,0.3357131167816322,0.5957321,-0.899708,0.11541200817802752,0.548204625,0.2781124989921875,0.2679955,1.4954401,1.0168033492187498,0.22958311943868362,1.502555,0.6091296,1.086597459713664,0.37071417500000003,1.0168033492187498,0.176844,0.8934254,-0.25517161688281254,0.2037664416489576,0.07099033,-0.8112613,0.10663331680486689,0.23411085000000004,0.2585096667109375,0.10651875000000002,0.88225163,-0.057289821778125,0.13988422623713104,0.2817426,-0.3335901,0.02284972042933018,0.18856943249999997,0.128603621309375,0.089306815,0.6153327,1,WALKING
-0.05538091692968751,0.4512673777027339,0.7989575,-1.343987,0.20670929213867487,0.6235249500000001,0.3528045834921875,0.2616642,2.1429445,0.059281872031250016,0.7727491952412822,2.043665,-1.396376,0.6006556590975788,1.21773255,0.6378828653124999,0.5326760500000001,3.440041,-0.018660833789062498,0.3367276335846152,0.5957321,-0.899708,0.11373372593719791,0.47453219999999996,0.2770503558984375,0.24370805,1.4954401,1.0050198562500001,0.22385355579346183,1.502555,0.6409131,1.0601753258981472,0.2905124,1.0050198562500001,0.14276450000000002,0.8616419000000001,-0.2485471719609375,0.19335505454583038,0.06590853,-0.8112613,0.09916187380820088,0.23440685,0.2517468739765625,0.09774280000000002,0.8771698299999999,-0.0455390130671875,0.1339747859360043,0.2817426,-0.3335901,0.02002304497773165,0.14908301749999997,0.11626258287968749,0.072559425,0.6153327,1,WALKING
-0.622532426484375,0.4943496744672721,0.363778,-2.081866,0.6319282226704217,0.6478916,0.653533577578125,0.26397655,2.445644,0.1865587940078125,0.7573203784913768,2.0933,-1.071677,0.6083383392999715,1.13881455,0.6237998990703125,0.59317845,3.1649770000000004,-0.008881942429687501,0.3356498827189435,0.7527355,-0.8661559,0.11273973267056484,0.49764135000000004,0.2691627368828125,0.2500941525,1.6188913999999999,1.00695837265625,0.26684884050908236,1.7462,0.4311802,1.085173467943565,0.32757582499999993,1.00695837265625,0.16053870000000003,1.3150198,-0.260249830703125,0.21292076735782337,0.1640724,-0.8883368,0.11306522755324956,0.238866675,0.269342566796875,0.12181720000000001,1.0524092,-0.033891085109375,0.15492354295755476,0.3531148,-0.3930399,0.025149909812412215,0.205539955,0.13160457276562498,0.09904846,0.7461547,1,WALKING
-0.349389559753125,0.475799140271307,0.6111089,-1.627685,0.3484578863473974,0.57926905,0.44284823970625,0.2847408585,2.2387939,0.066144137625,0.7178453897291401,1.663593,-1.071677,0.5196770504975361,1.1262458,0.582644908,0.561430458,2.73527,0.0402080819140625,0.32646629314320885,0.528738,-0.8835524,0.10819693040987553,0.43833535,0.2654207008203125,0.23379598499999998,1.4122904,0.98805758125,0.25273515818312153,1.650505,0.563807,1.0401328440474478,0.3450575,0.98805758125,0.17111735000000006,1.0866980000000002,-0.25053455640625,0.18283880821099685,0.07121854,-0.8677109,0.09619759374169415,0.21510202499999997,0.25164734609375,0.10512924000000001,0.9389294399999999,-0.048837929549523436,0.12704564581906105,0.2597392,-0.3380641,0.018525739484266522,0.1457120125,0.11532642245577343,0.0698009028305,0.5978033,1,WALKING
-0.177070454065625,0.45653261804437884,0.7436134,-1.496866,0.23977597704146134,0.519660525,0.35714730851875,0.247802925,2.2404794,-0.009668671609374999,0.723028903534867,1.663593,-1.546061,0.522864278557522,1.01839155,0.5908251981718751,0.44218605,3.209654,0.0007780377656250014,0.3526209641535244,0.6312694,-0.8835524,0.12434214970332585,0.5088762,0.28012165621875,0.239355075,1.5148218,1.00446264375,0.24324987224642994,1.650505,0.6079888,1.068115703037144,0.34976462499999994,1.00446264375,0.16866629999999994,1.0425162000000001,-0.24299590074218752,0.17868621139610988,0.036644,-0.709499,0.0909757699206023,0.19593652500000003,0.24384633683593748,0.09321879999999999,0.746143,-0.049936544594835944,0.13161235916837982,0.2513151,-0.3424841,0.019815471571938654,0.15689812250000001,0.11964938401983594,0.079453618,0.5937992000000001,1,WALKING
-0.07256200115546875,0.48067303783529614,0.8507596,-1.304512,0.2363118133134983,0.5655291,0.3665605483757812,0.24879763100000002,2.1552716,0.051454820140625,0.7642927218293917,1.762211,-1.546061,0.5867909631570838,1.177419325,0.630632705859375,0.50107719,3.3082719999999997,-0.032446644187500005,0.3281748190507581,0.6312694,-0.7733353,0.1087514965780281,0.4673332,0.262685806140625,0.220743215,1.4046047,1.0160749375,0.24509399897189732,1.636612,0.6154158,1.0924793469476652,0.3574187,1.0160749375,0.18533805000000003,1.0211961999999999,-0.24229457753765626,0.18935453405335642,0.04742635,-0.7257223,0.09456180187071501,0.19496707499999996,0.24464050175921878,0.08300175,0.77314865,-0.0413255271234375,0.13816927130727447,0.2948766,-0.3424841,0.02079854672561319,0.16401791,0.1194829964546875,0.07771169499999998,0.6373607,1,WALKING
0.046560377157031235,0.4827082384051124,1.132218,-1.304512,0.23517511214517187,0.51789045,0.38652082509453123,0.253250025,2.43673,0.056830849242187495,0.7474669826841248,1.762211,-1.349124,0.561936635628498,1.0380868749999999,0.6005821175234375,0.50101545,3.111335,0.009485255765624999,0.3164204833040365,0.9946196,-0.8328098,0.10021189233129935,0.4408872,0.249505934640625,0.20964549999999998,1.8274294000000002,0.9890773359375,0.25344365015770637,1.554718,0.5929775,1.0425076602704841,0.37771,0.9890773359375,0.18213585,0.9617405,-0.23266847845953126,0.19246058591317663,0.06489581,-0.8196041,0.09117569799871661,0.18511049999999998,0.23609292143109378,0.09155877,0.88449991,-0.0180430747734375,0.14001264146004597,0.3207581,-0.3324942,0.019929092315899243,0.224560225,0.1169776613984375,0.08794538499999999,0.6532523,1,WALKING
0.07818688282812501,0.43955818658753876,1.132218,-1.000712,0.19932458804250447,0.46584390000000003,0.349667767765625,0.23542200000000002,2.13293,-0.0037467302421875046,0.7067100007276587,1.657317,-1.349124,0.49945306311599497,0.9650498750000001,0.5701312517890624,0.4512623,3.0064409999999997,0.01681996715625,0.34063379580042547,0.9946196,-0.8328098,0.11631429413654326,0.46788575,0.2665915179375,0.231813635,1.8274294000000002,1.00768134296875,0.2550500711656422,1.554718,0.51133,1.0804722277689027,0.4200179500000001,1.00768134296875,0.17786135000000003,1.0433880000000002,-0.231989846765625,0.1921885743750139,0.06489581,-0.8196041,0.09075573712263842,0.19210012500000004,0.23664824848437502,0.09105326499999998,0.88449991,-0.0018087212187500026,0.14127959439641155,0.3290907,-0.3324942,0.01996319526526172,0.23543637500000003,0.11826986217187499,0.11856525,0.6615849,1,WALKING
0.0212265290078125,0.42047725187961366,0.9127537,-1.029843,0.1772516848819516,0.443939225,0.3256290014765625,0.215090445,1.9425967000000002,-0.038753032156250006,0.6764189783963696,1.411484,-1.329111,0.45904443183609167,1.013517125,0.561978491296875,0.487236,2.740595,0.009376302093749999,0.3274896839544042,0.8717232,-0.8947781,0.10733740813750883,0.443795825,0.26121117915625,0.21570102,1.7665013,1.0190484484375,0.23990420605225954,1.527086,0.51133,1.096013768344441,0.34374949999999993,1.0190484484375,0.16806485,1.015756,-0.23146510996875003,0.18106474667464006,0.0609084,-0.7524103,0.08636053962119711,0.23054412500000002,0.234738390703125,0.08894317500000003,0.8133187,-0.009902979744531248,0.13600035539303054,0.3679956,-0.3194233,0.018594165674851205,0.22366089500000003,0.11070519339609375,0.091210835,0.6874188999999999,1,WALKING
0.028763308335937515,0.4254382795091487,0.9127537,-1.132077,0.18182505757813275,0.49054390000000003,0.34016242546093756,0.2290845,2.0448307,-0.08279561645312501,0.6774708461094722,1.75797,-1.222733,0.46582186143213705,0.86456305,0.55505631309375,0.3895004,2.980703,0.004405443656250004,0.3154709609878258,0.5377068,-0.8947781,0.09954133516039068,0.446724575,0.25793216,0.20423308999999998,1.4324849,0.9951903453125002,0.19791118481250225,1.468986,0.5477371,1.0295726604771014,0.2496811750000001,0.9951903453125002,0.12009075000000002,0.9212488999999999,-0.23316004455468753,0.16822313455107699,0.02370296,-0.672437,0.08266262937493361,0.22140905,0.2340244743515625,0.08550705,0.69613996,-0.02742817568984375,0.13276512496052048,0.3679956,-0.3717073,0.018378883227455553,0.1411210875,0.10908176818515625,0.06697625500000001,0.7397028999999999,1,WALKING
0.0065166138281250105,0.3805905142216395,0.7382979,-1.13678,0.14489160577127688,0.459527825,0.289305516578125,0.23385565,1.8750779,-0.023084239710937485,0.6898178562102273,1.75797,-1.331952,0.47638155686950584,0.808560525,0.5424514132578125,0.36068895,3.089922,0.011991680906250003,0.3138182696910998,0.4870456,-0.7831537,0.09862570680287316,0.506915675,0.26309176215624996,0.242920855,1.2701993,1.00112228203125,0.2048635235835778,1.514835,0.5028221,1.044214886874537,0.264122175,1.00112228203125,0.12013170000000001,1.0120128999999998,-0.22551406649218753,0.15962381586599372,0.02358042,-0.6677498,0.07633635677746343,0.14064882500000003,0.2264162493046875,0.06847265,0.69133022,-0.0273176302734375,0.1262259887770655,0.3207175,-0.3717073,0.016679253166504097,0.16287298,0.1069732450078125,0.06545449,0.6924248,1,WALKING
-0.046688552921875,0.3953622787122335,0.8998414,-1.13678,0.1584911524024685,0.370829325,0.296161884578125,0.217009525,2.0366214,-0.0183866670546875,0.6634379333340726,1.659775,-1.331952,0.4404879609119653,0.8590558,0.5284251379453125,0.42019694999999996,2.991727,0.006552929343749993,0.31065516777921454,0.4667345,-0.7891584,0.09654957415091614,0.49289190000000005,0.25932389809375,0.24023811,1.2558929,1.0119681468750001,0.2054227548103491,1.514835,0.5028221,1.0662780384834945,0.2792762,1.0119681468750001,0.14165965000000003,1.0120128999999998,-0.213513485,0.15801706858202952,0.1803297,-0.7670663,0.07055740224010304,0.13984962500000003,0.21845607923437502,0.06820755,0.947396,-0.022258054398437498,0.13333671952933068,0.4071564,-0.3086859,0.0182741017604472,0.1620999875,0.1098986776484375,0.065673125,0.7158423,1,WALKING
-0.019968053828125,0.45367124575367623,0.8998414,-1.110543,0.20621632239737536,0.5252384,0.363988935703125,0.29664585,2.0103844,-0.03387379039062499,0.676900837066903,1.570251,-1.132597,0.45934217689730195,0.952758625,0.554949040390625,0.43493919999999997,2.7028480000000004,-0.04557332465625001,0.352457274415177,0.5702933,-0.9186197,0.12630305820839932,0.51107435,0.29382421596875,0.26592708499999995,1.4889130000000002,1.014421096875,0.18274036213772923,1.519784,0.6546036,1.0624442017393065,0.262893375,1.014421096875,0.1333129999999999,0.8651804000000001,-0.224570424765625,0.17211441191936086,0.1803297,-0.7670663,0.08005524646976067,0.17008082500000002,0.23041396571875,0.08111325,0.947396,-0.036734871867187505,0.14360402160151767,0.4071564,-0.3216875,0.02197156583122784,0.1652506225,0.1211461007421875,0.08528419000000001,0.7288439,1,WALKING
0.036893053593749996,0.5206287692930933,0.9847599,-1.087251,0.2724154128191123,0.7693488,0.43562308078125006,0.38917625,2.0720109,0.041883859914062495,0.7203850710082389,1.97155,-1.345969,0.5207089082528462,1.081830975,0.5894147580546876,0.507313235,3.317519,-0.025448113359375003,0.38089349338076794,0.6000762,-0.9186197,0.14572745977335674,0.56970795,0.31975630382812503,0.290266305,1.5186959,1.01778150234375,0.20613189697111922,1.609465,0.6538805,1.0783695454620128,0.2751696750000001,1.01778150234375,0.13893344999999996,0.9555845,-0.22938857253125,0.17734188515664503,0.1395516,-0.6943864,0.08406926143883722,0.2332497,0.23498254351562498,0.10766810499999999,0.833938,-0.0526171123125,0.14516974812607022,0.3484829,-0.3919158,0.023842816279092908,0.20041063250000002,0.12798794903125,0.097901485,0.7403987,1,WALKING
-0.0005214652257812466,0.5200115063301888,0.9847599,-1.099312,0.27041223864177366,0.71965745,0.4214451237585938,0.36178021,2.0840719,0.09423642673437502,0.737094886491439,1.97155,-1.345969,0.5521893758154905,1.0544107249999999,0.5959702039375,0.509300691,3.317519,0.022856844765624995,0.3417912960310092,0.6000762,-0.8540419,0.11734372539519687,0.4390623,0.28006210132812503,0.224917525,1.4541181,1.00144855234375,0.22133628259906207,1.609465,0.6164022,1.0518889529861646,0.28297605000000003,1.00144855234375,0.13811615000000005,0.9930627999999999,-0.22506074353906252,0.17626894395662013,0.1395516,-0.6993832,0.08172307888593774,0.20017300249999997,0.22992847374218753,0.10009725999999998,0.8389348,-0.040319660007812494,0.14799919896998537,0.3484829,-0.3919158,0.023529437878902913,0.207913315,0.1263008287421875,0.10049646,0.7403987,1,WALKING
-0.016811327874218754,0.4234376733005006,0.7916821,-1.207539,0.1795820839150359,0.5173084750000001,0.32617708845390625,0.26083749,1.9992211,0.032923545624999995,0.7146778206835984,1.909029,-1.644164,0.5118483472335791,0.854783775,0.557217866453125,0.44425545,3.5531930000000003,-0.0046919006249999985,0.3240191485893842,0.5734381,-1.029799,0.1050104225840643,0.43843095,0.26141083890625,0.21662195,1.6032370999999999,0.9885022031249999,0.2030600821046988,1.488723,0.510836,1.0183700025273459,0.2681167750000001,0.9885022031249999,0.1374112,0.9778870000000001,-0.23032765624218748,0.17561179794762072,0.04998433,-0.7287528,0.08389033280841526,0.17748609999999998,0.2324736064453125,0.08502084999999998,0.77873713,-0.020562980578125,0.1375473734203562,0.3123001,-0.3567894,0.019342116105095262,0.20850984,0.11573555478125,0.08886804000000001,0.6690895,1,WALKING
-0.005211384304687497,0.2809549649959746,0.8014818,-0.5658496,0.07896285088226046,0.339847675,0.2226042837109375,0.1665817,1.3673313999999999,-0.016579868929687488,0.5119963242547029,0.9800552,-1.358328,0.26241512810405254,0.730415225,0.41495269471093754,0.353190385,2.3383832,0.02174453753125,0.32593694816272595,0.8224661,-0.8536176,0.10670771909007942,0.353055275,0.24242881159375,0.16579365000000001,1.6760837,1.0109239039062499,0.26862512914681996,1.776439,0.587688,1.0941265994981988,0.37658044999999996,1.0109239039062499,0.14044150000000005,1.1887510000000001,-0.2132494240703125,0.1387014467767302,0.07160071,-0.6640027,0.0647134082042781,0.151361925,0.21687805983593753,0.08189250000000001,0.73560341,-0.0237554928828125,0.10692741652541245,0.1571817,-0.2559634,0.011997795846904401,0.1577571125,0.0913270638203125,0.082759205,0.41314510000000004,3,WALKING_DOWNSTAIRS
-0.047183077500000004,0.238641803154161,0.8014818,-0.5604173,0.059176153015040325,0.2708780525,0.185842842546875,0.13665549500000002,1.3618991,-0.0030446852343750004,0.6425211862187916,1.491566,-2.779373,0.41284274484817945,0.833798825,0.503012084453125,0.41576080000000004,4.270939,0.011244758023437499,0.3361276564853724,0.8224661,-1.125697,0.11310824603735417,0.415990675,0.25736265844531253,0.21617215,1.9481631,1.0104588367187501,0.31235854613444847,1.778228,0.582294,1.118594922046236,0.47919994999999993,1.0104588367187501,0.1722259,1.1959339999999998,-0.20685101114062499,0.14691628335817727,0.06209943,-0.6640027,0.0643717351256792,0.17883273499999996,0.210841334890625,0.0885116,0.7261021299999999,-0.015975755890625,0.12064686342734197,0.1648375,-0.32993,0.014810890431132546,0.1823020675,0.10143842976562499,0.09303328999999999,0.4947675,3,WALKING_DOWNSTAIRS
-0.4634653071328125,0.5689727681972027,0.3718711,-2.101331,0.5385301018656999,0.7849512325,0.5190587604140625,0.36931047,2.4732021,0.11512513527343748,0.6766156736074481,1.491566,-2.779373,0.47106256654298806,0.727054925,0.5231901237421875,0.36304044999999996,4.270939,0.0032808683984375045,0.3608587502462274,0.6954936,-1.125697,0.13022980172671697,0.48962462500000004,0.28616128725781254,0.2458917,1.8211906,1.01495801015625,0.2939924781574931,1.778228,0.582294,1.1165713395935186,0.375651025,1.01495801015625,0.14926575000000003,1.1959339999999998,-0.20154297195312498,0.16901085453879033,0.1320489,-0.9108779,0.06918423849563028,0.16320541750000003,0.208729636,0.08781675000000001,1.0429268,-0.030351752852343747,0.11823139930816211,0.1648375,-0.32993,0.014899892683575833,0.17412644,0.10052136203984374,0.090035495,0.4947675,3,WALKING_DOWNSTAIRS
-0.42991729101562504,0.6439776349486088,0.8622448,-2.101331,0.5995360714282173,0.894191945,0.6113611713281248,0.45052617,2.9635758,0.109795925640625,0.6315983124550869,1.47299,-1.7232,0.41097157358339526,0.6607414,0.503802639,0.33861275,3.19619,-0.0054457254531249995,0.3688785664365739,0.6954936,-1.178013,0.1361010527020127,0.437361875,0.2872364339375,0.202658685,1.8735066,1.0131689875,0.2806899076925449,1.859683,0.5792127,1.1052982215122245,0.31093649999999995,1.0131689875,0.11788440000000011,1.2804703,-0.20134919246093752,0.1933944114463319,0.1320489,-0.9312952,0.07794289568334475,0.1579243175,0.2118030568046875,0.07507971000000001,1.0633441,-0.04229292668046875,0.1180871947665542,0.2246492,-0.3406181,0.01573327721503361,0.17826682,0.10348213618046874,0.08728551,0.5652672999999999,3,WALKING_DOWNSTAIRS
0.1072422761328125,0.39834572809723356,0.97152,-0.7648927,0.17018022488346157,0.5922565,0.35184052347656253,0.23254124999999998,1.7364127,-0.029559281609375,0.6038555222659162,1.265878,-1.7232,0.36551524290030474,0.8679349000000001,0.49405695171875,0.4442475815,2.989078,-0.010596840601562496,0.4025154090403254,0.7135004,-1.220362,0.1621309475456354,0.47038444999999995,0.30943797936718753,0.23448865000000002,1.9338624,1.0117942453125,0.34660610244937595,1.987404,0.5352214,1.1438633851026387,0.32761215,1.0117942453125,0.16407095000000005,1.4521826,-0.1827412031484375,0.18187111935231992,0.2316681,-0.9312952,0.06647145138260431,0.151539755,0.19564276502343753,0.077031355,1.1629633,-0.032338252820624996,0.1368883174884314,0.292778,-0.4330389,0.019784174060304246,0.2166247725,0.11651700618000001,0.09647854,0.7258169,3,WALKING_DOWNSTAIRS
-0.15257250285156249,0.6604249272609959,1.057134,-1.732783,0.45943945317408175,0.9271292499999999,0.5457481494921874,0.472557,2.789917,0.02260878867187499,0.6977098251430763,1.953911,-1.670771,0.4873101574263916,0.920954775,0.550078281125,0.4275231,3.624682,0.0012976293828125054,0.4591497204490518,0.7135004,-1.760724,0.21082014963045748,0.6249350250000001,0.3540559199609375,0.31352665,2.4742243999999998,1.0083453453125,0.36368046228239287,1.987404,0.5352214,1.1490238140593196,0.37688370000000004,1.0083453453125,0.12955505,1.4521826,-0.18861794120312497,0.18399897366518164,0.2316681,-0.9198537,0.06943235005354573,0.18000142000000002,0.19819274664062497,0.08581775,1.1515218,-0.042596188845625,0.14023268239122585,0.292778,-0.4330389,0.02147964051481057,0.21223925,0.11862358411125,0.10743452,0.7258169,3,WALKING_DOWNSTAIRS
0.02918590781249998,0.7418296927192548,1.057134,-1.732783,0.5511631102147838,1.1340356749999998,0.64487435390625,0.39296261,2.789917,-0.009839633898437526,0.712007903373527,1.953911,-1.670771,0.507052072861621,0.953550775,0.5672710793359375,0.43525185,3.624682,-0.014149005183593744,0.43739946842045985,0.6824368,-1.760724,0.19151848932218624,0.53507115,0.3396512798398438,0.27269515,2.4431608,1.01342331015625,0.3169567731609415,1.921682,0.6580701,1.1274884016206475,0.40927904999999987,1.01342331015625,0.10386905000000002,1.2636119,-0.19951447694531252,0.16489589690650194,0.05845315,-0.9198537,0.06699668332736135,0.15131702500000005,0.2022311062890625,0.07450533000000001,0.97830685,-0.038571277251562494,0.14206526644844708,0.2230164,-0.4543542,0.02167028335988517,0.223298645,0.1180544097203125,0.10886945,0.6773705999999999,3,WALKING_DOWNSTAIRS
